SubID,Vers,Phase,Block,Trial,EffLvl,RewLvl,Acc,RT,AccRT,Resp,IsRewarded,Congruency,SliderEnd,ProbeRt,ProbeType,feedbackOrder,zAccRT,isMiss,EffLvlCat,EfficacyProbeResp,RewRateProbeResp,Efficacy_T1,Efficacy_T2,Efficacy_T3,Efficacy_T4,Efficacy_T5,Efficacy_T6,Efficacy_T7,Efficacy_T8,Efficacy_T9,Efficacy_T10,IsRewarded_T1,IsRewarded_T2,IsRewarded_T3,IsRewarded_T4,IsRewarded_T5,IsRewarded_T6,IsRewarded_T7,IsRewarded_T8,IsRewarded_T9,IsRewarded_T10,ReportedEfficacyNN,ReportedEfficacyLin,ReportedRewRateNN,ReportedRewRateLin,AvgSubjEffLvl,runAvgRewRate,runAvgRewPerformCong,runAvgEfficacy,runAvgAccRT,runAvgAcc,CurrSubjEffLvl,RunAvgWindow_Eff,RunAvgWindow_Rew
1041,104,1,1,1,1,1,1,644,644,4,1,0,NaN,NaN,NaN,2,-0.0363226113265227,0,1,NaN,NaN,NaN,NaN,NaN,NaN,NaN,NaN,NaN,NaN,NaN,NaN,NaN,NaN,NaN,NaN,NaN,NaN,NaN,NaN,NaN,NaN,NaN,NaN,NaN,NaN,NaN,0,NaN,0,0,0,NaN,5,5
1041,104,1,1,2,1,1,1,336,336,3,1,2,1,NaN,1,1,-2.23767336258161,0,1,1,NaN,1,NaN,NaN,NaN,NaN,NaN,NaN,NaN,NaN,NaN,1,NaN,NaN,NaN,NaN,NaN,NaN,NaN,NaN,NaN,1,1,NaN,NaN,NaN,0.2,NaN,0.2,128.8,0.2,1,5,5
1041,104,1,1,3,1,1,1,621,621,1,1,0,NaN,NaN,NaN,2,-0.200709193400766,0,1,NaN,NaN,1,1,NaN,NaN,NaN,NaN,NaN,NaN,NaN,NaN,1,1,NaN,NaN,NaN,NaN,NaN,NaN,NaN,NaN,1,0.994444444444444,NaN,NaN,NaN,0.4,NaN,0.4,196,0.4,1,5,5
1041,104,1,1,4,1,1,1,450,450,3,1,2,NaN,NaN,NaN,2,-1.42288769490927,0,1,NaN,NaN,1,1,1,NaN,NaN,NaN,NaN,NaN,NaN,NaN,1,1,1,NaN,NaN,NaN,NaN,NaN,NaN,NaN,1,0.988888888888889,NaN,NaN,NaN,0.6,NaN,0.6,320.2,0.6,1,5,5
1041,104,1,1,5,1,1,1,426,426,2,1,1,NaN,NaN,NaN,2,-1.5944215196824,0,1,NaN,NaN,1,1,1,1,NaN,NaN,NaN,NaN,NaN,NaN,1,1,1,1,NaN,NaN,NaN,NaN,NaN,NaN,0.966666666666667,0.983333333333333,NaN,NaN,NaN,0.8,NaN,0.8,410.2,0.8,1,5,5
1041,104,1,1,6,0,1,1,368,368,4,1,1,0.916666666666667,NaN,2,2,-2.00896159621745,0,0,NaN,0.916666666666667,1,1,1,1,1,NaN,NaN,NaN,NaN,NaN,1,1,1,1,1,NaN,NaN,NaN,NaN,NaN,0.966666666666667,0.977777777777778,0.916666666666667,0.916666666666667,NaN,1,NaN,1,495.4,1,1,5,5
1041,104,1,1,7,1,1,1,511,511,2,1,1,NaN,NaN,NaN,1,-0.986905890277584,0,1,NaN,NaN,0,1,1,1,1,1,NaN,NaN,NaN,NaN,1,1,1,1,1,1,NaN,NaN,NaN,NaN,0.966666666666667,0.972222222222222,0.916666666666667,0.883333333333333,NaN,1,NaN,0.8,440.2,1,1,5,5
1041,104,1,1,8,1,1,1,500,500,1,1,1,0.966666666666667,NaN,1,2,-1.06552555996527,0,1,0.966666666666667,NaN,1,0,1,1,1,1,1,NaN,NaN,NaN,1,1,1,1,1,1,1,NaN,NaN,NaN,0.966666666666667,0.966666666666667,0.916666666666667,0.85,NaN,1,NaN,0.8,475.2,1,0.983333333333333,5,5
1041,104,1,1,9,1,1,1,737,737,4,0,1,NaN,NaN,NaN,2,0.628370959669332,0,1,NaN,NaN,1,1,0,1,1,1,1,1,NaN,NaN,1,1,1,1,1,1,1,1,NaN,NaN,0.966666666666667,0.954166666666667,0.75,0.816666666666667,NaN,1,NaN,0.8,451,1,0.983333333333333,5,5
1041,104,1,1,10,1,1,1,721,721,3,0,2,NaN,NaN,NaN,2,0.51401507648725,0,1,NaN,NaN,1,1,1,0,1,1,1,1,1,NaN,0,1,1,1,1,1,1,1,1,NaN,0.966666666666667,0.941666666666667,0.75,0.783333333333333,NaN,0.8,NaN,0.8,508.4,1,0.983333333333333,5,5
1041,104,1,1,11,1,1,1,548,548,2,1,1,0.75,NaN,2,1,-0.722457910419018,0,1,NaN,0.75,1,1,1,1,0,1,1,1,1,1,0,0,1,1,1,1,1,1,1,1,0.891666666666667,0.929166666666667,0.75,0.75,NaN,0.6,NaN,0.8,567.4,1,0.983333333333333,5,5
1041,104,1,1,12,1,1,1,540,540,3,1,1,NaN,NaN,NaN,1,-0.77963585201006,0,1,NaN,NaN,1,1,1,1,1,0,1,1,1,1,1,0,0,1,1,1,1,1,1,1,0.891666666666667,0.916666666666667,0.75,0.779166666666667,NaN,0.6,NaN,1,603.4,1,0.983333333333333,5,5
1041,104,1,1,13,1,1,1,434,434,4,1,1,NaN,NaN,NaN,2,-1.53724357809136,0,1,NaN,NaN,1,1,1,1,1,1,0,1,1,1,1,1,0,0,1,1,1,1,1,1,0.891666666666667,0.904166666666667,0.75,0.808333333333333,NaN,0.6,NaN,1,609.2,1,0.983333333333333,5,5
1041,104,1,1,14,1,1,1,777,777,1,0,0,0.891666666666667,NaN,1,1,0.914260667624539,0,1,0.891666666666667,NaN,1,1,1,1,1,1,1,0,1,1,1,1,1,0,0,1,1,1,1,1,0.891666666666667,0.891666666666667,0.925,0.8375,NaN,0.6,NaN,1,596,1,0.9375,5,5
1041,104,1,1,15,1,1,1,712,712,2,0,0,NaN,NaN,NaN,2,0.449689892197328,0,1,NaN,NaN,1,1,1,1,1,1,1,1,0,1,0,1,1,1,0,0,1,1,1,1,0.891666666666667,0.886904761904762,0.925,0.866666666666667,NaN,0.6,NaN,1,604,1,0.9375,5,5
1041,104,1,1,16,1,1,1,384,384,1,1,0,NaN,NaN,NaN,2,-1.89460571303537,0,1,NaN,NaN,1,1,1,1,1,1,1,1,1,0,0,0,1,1,1,0,0,1,1,1,0.891666666666667,0.882142857142857,0.925,0.895833333333333,NaN,0.6,NaN,1,602.2,1,0.9375,5,5
1041,104,1,1,17,1,1,1,381,381,4,1,1,0.925,NaN,2,1,-1.91604744113201,0,1,NaN,0.925,1,1,1,1,1,1,1,1,1,1,1,0,0,1,1,1,0,0,1,1,0.891666666666667,0.877380952380952,0.925,0.925,NaN,0.6,NaN,1,569.4,1,0.9375,5,5
1041,104,1,1,18,1,1,1,389,389,1,1,1,NaN,NaN,NaN,1,-1.85886949954096,0,1,NaN,NaN,1,1,1,1,1,1,1,1,1,1,1,1,0,0,1,1,1,0,0,1,0.858333333333333,0.872619047619048,0.925,0.909375,NaN,0.6,NaN,1,537.6,1,0.9375,5,5
1041,104,1,1,19,1,1,1,490,490,2,1,1,NaN,NaN,NaN,2,-1.13699798695407,0,1,NaN,NaN,1,1,1,1,1,1,1,1,1,1,1,1,1,0,0,1,1,1,0,0,0.858333333333333,0.867857142857143,0.925,0.89375,NaN,0.6,NaN,1,528.6,1,0.9375,5,5
1041,104,1,1,20,1,1,1,596,596,4,1,1,NaN,NaN,NaN,2,-0.379390260872771,0,1,NaN,NaN,1,1,1,1,1,1,1,1,1,1,1,1,1,1,0,0,1,1,1,0,0.858333333333333,0.863095238095238,0.925,0.878125,NaN,0.8,NaN,1,471.2,1,0.9375,5,5
1041,104,1,1,21,0,1,1,627,627,1,1,0,0.858333333333333,NaN,1,2,-0.157825737207485,0,0,0.858333333333333,NaN,1,1,1,1,1,1,1,1,1,1,1,1,1,1,1,0,0,1,1,1,0.858333333333333,0.858333333333333,0.8,0.8625,NaN,1,NaN,1,448,1,0.897916666666667,5,5
1041,104,1,1,22,1,1,1,674,674,2,0,2,NaN,NaN,NaN,1,0.178094669639882,0,1,NaN,NaN,0,1,1,1,1,1,1,1,1,1,1,1,1,1,1,1,0,0,1,1,0.858333333333333,0.833333333333333,0.8,0.846875,NaN,1,NaN,0.8,496.6,1,0.897916666666667,5,5
1041,104,1,1,23,1,1,1,487,487,1,1,1,NaN,NaN,NaN,2,-1.15843971505071,0,1,NaN,NaN,1,0,1,1,1,1,1,1,1,1,0,1,1,1,1,1,1,0,0,1,0.858333333333333,0.808333333333333,0.8,0.83125,NaN,0.8,NaN,0.8,555.2,1,0.897916666666667,5,5
1041,104,1,1,24,0,1,1,617,617,2,0,0,NaN,NaN,NaN,2,-0.229298164196287,0,0,NaN,NaN,1,1,0,1,1,1,1,1,1,1,1,0,1,1,1,1,1,1,0,0,0.858333333333333,0.783333333333333,0.8,0.815625,NaN,0.8,NaN,0.8,574.8,1,0.897916666666667,5,5
1041,104,1,1,25,1,1,1,423,423,1,1,1,0.8,NaN,2,2,-1.61586324777904,0,1,NaN,0.8,0,1,1,0,1,1,1,1,1,1,0,1,0,1,1,1,1,1,1,0,0.683333333333333,0.758333333333333,0.8,0.8,NaN,0.6,NaN,0.6,600.2,1,0.897916666666667,5,5
1041,104,1,1,26,1,1,1,492,492,3,1,2,NaN,NaN,NaN,2,-1.12270350155631,0,1,NaN,NaN,1,0,1,1,0,1,1,1,1,1,1,0,1,0,1,1,1,1,1,1,0.683333333333333,0.733333333333333,0.8,0.805,NaN,0.6,NaN,0.6,565.6,1,0.897916666666667,5,5
1041,104,1,1,27,1,1,1,547,547,4,1,0,NaN,NaN,NaN,2,-0.729605153117899,0,1,NaN,NaN,1,1,0,1,1,0,1,1,1,1,1,1,0,1,0,1,1,1,1,1,0.683333333333333,0.708333333333333,0.8,0.81,NaN,0.6,NaN,0.8,538.6,1,0.897916666666667,5,5
1041,104,1,1,28,1,1,1,595,595,3,1,0,0.683333333333333,NaN,1,1,-0.386537503571651,0,1,0.683333333333333,NaN,1,1,1,0,1,1,0,1,1,1,1,1,1,0,1,0,1,1,1,1,0.683333333333333,0.683333333333333,0.825,0.815,NaN,0.8,NaN,0.8,513.2,1,0.790625,5,5
1041,104,1,1,29,1,1,1,494,494,2,1,2,NaN,NaN,NaN,2,-1.10840901615855,0,1,NaN,NaN,1,1,1,1,0,1,1,0,1,1,1,1,1,1,0,1,0,1,1,1,0.683333333333333,0.726666666666667,0.825,0.82,NaN,0.8,NaN,0.8,534.8,1,0.790625,5,5
1041,104,1,1,30,0,1,1,336,336,4,1,1,0.825,NaN,2,2,-2.23767336258161,0,0,NaN,0.825,1,1,1,1,1,0,1,1,0,1,1,1,1,1,1,0,1,0,1,1,0.683333333333333,0.77,0.825,0.825,NaN,1,NaN,1,510.2,1,0.790625,5,5
1041,104,1,1,31,1,1,1,658,658,2,0,2,NaN,NaN,NaN,1,0.0637387864577996,0,1,NaN,NaN,0,1,1,1,1,1,0,1,1,0,1,1,1,1,1,1,0,1,0,1,0.9,0.813333333333333,0.825,0.85,NaN,1,NaN,0.8,492.8,1,0.790625,5,5
1041,104,1,1,32,1,1,1,468,468,4,1,1,NaN,NaN,NaN,2,-1.29423732632943,0,1,NaN,NaN,1,0,1,1,1,1,1,0,1,1,0,1,1,1,1,1,1,0,1,0,0.9,0.856666666666667,0.825,0.875,NaN,0.8,NaN,0.8,526,1,0.790625,5,5
1041,104,1,1,33,1,1,1,373,373,3,1,2,0.9,NaN,1,2,-1.97322538272305,0,1,0.9,NaN,1,1,0,1,1,1,1,1,0,1,1,0,1,1,1,1,1,1,0,1,0.9,0.9,0.95,0.9,NaN,0.8,NaN,0.8,510.2,1,0.8453125,5,5
1041,104,1,1,34,1,1,1,553,553,2,1,0,NaN,NaN,NaN,1,-0.686721696924617,0,1,NaN,NaN,1,1,1,0,1,1,1,1,1,0,1,1,0,1,1,1,1,1,1,0,0.9,0.86875,0.95,0.925,NaN,0.8,NaN,0.8,465.8,1,0.8453125,5,5
1041,104,1,1,35,1,1,1,494,494,1,1,1,0.95,NaN,2,1,-1.10840901615855,0,1,NaN,0.95,1,1,1,1,0,1,1,1,1,1,1,1,1,0,1,1,1,1,1,1,0.775,0.8375,0.95,0.95,NaN,0.8,NaN,0.8,477.6,1,0.8453125,5,5
1041,104,1,1,36,0,1,0,469,NaN,2,1,1,NaN,NaN,NaN,2,NaN,0,0,NaN,NaN,1,1,1,1,1,0,1,1,1,1,1,1,1,1,0,1,1,1,1,1,0.775,0.80625,0.95,0.903333333333333,NaN,0.8,NaN,1,NaN,1,0.8453125,5,5
1041,104,1,1,37,1,1,1,589,589,2,1,2,0.775,NaN,1,1,-0.429420959764932,0,1,0.775,NaN,0,1,1,1,1,1,0,1,1,1,1,1,1,1,1,0,1,1,1,1,0.775,0.775,0.95,0.856666666666667,NaN,1,NaN,0.8,NaN,0.8,0.81015625,5,5
1041,104,1,1,38,1,1,1,600,600,1,1,0,NaN,NaN,NaN,2,-0.35080129007725,0,1,NaN,NaN,1,0,1,1,1,1,1,0,1,1,1,1,1,1,1,1,0,1,1,1,0.775,0.765476190476191,0.716666666666667,0.81,NaN,1,NaN,0.8,NaN,0.8,0.81015625,5,5
1041,104,1,1,39,0,1,1,726,726,3,1,1,NaN,NaN,NaN,1,0.549751289981651,0,0,NaN,NaN,1,1,0,1,1,1,1,1,0,1,1,1,1,1,1,1,1,0,1,1,0.775,0.755952380952381,0.716666666666667,0.763333333333333,NaN,1,NaN,0.8,NaN,0.8,0.81015625,5,5
1041,104,1,1,40,1,1,1,471,471,2,1,0,0.716666666666667,NaN,2,2,-1.27279559823279,0,1,NaN,0.716666666666667,0,1,1,0,1,1,1,1,1,0,1,1,1,1,1,1,1,1,0,1,0.775,0.746428571428571,0.716666666666667,0.716666666666667,NaN,1,NaN,0.6,NaN,0.8,0.81015625,5,5
1041,104,1,1,41,1,1,1,548,548,3,1,2,NaN,NaN,NaN,1,-0.722457910419018,0,1,NaN,NaN,1,0,1,1,0,1,1,1,1,1,1,1,1,1,1,1,1,1,1,0,0.708333333333333,0.736904761904762,0.716666666666667,0.730208333333333,NaN,1,NaN,0.6,NaN,0.8,0.81015625,5,5
1041,104,1,1,42,1,1,1,405,405,4,1,1,NaN,NaN,NaN,1,-1.74451361635888,0,1,NaN,NaN,1,1,0,1,1,0,1,1,1,1,1,1,1,1,1,1,1,1,1,1,0.708333333333333,0.727380952380952,0.716666666666667,0.74375,NaN,1,NaN,0.8,586.8,1,0.81015625,5,5
1041,104,1,1,43,0,1,1,456,456,1,1,2,NaN,NaN,NaN,2,-1.38000423871599,0,0,NaN,NaN,1,1,1,0,1,1,0,1,1,1,1,1,1,1,1,1,1,1,1,1,0.708333333333333,0.717857142857143,0.716666666666667,0.757291666666667,NaN,1,NaN,0.8,550,1,0.81015625,5,5
1041,104,1,1,44,1,1,1,575,575,3,1,0,0.708333333333333,NaN,1,2,-0.529482357549254,0,1,0.708333333333333,NaN,0,1,1,1,0,1,1,0,1,1,1,1,1,1,1,1,1,1,1,1,0.708333333333333,0.708333333333333,0.825,0.770833333333333,NaN,1,NaN,0.6,521.2,1,0.759244791666667,5,5
1041,104,1,1,45,1,1,1,461,461,2,1,2,NaN,NaN,NaN,1,-1.34426802522159,0,1,NaN,NaN,1,0,1,1,1,0,1,1,0,1,1,1,1,1,1,1,1,1,1,1,0.708333333333333,0.702380952380952,0.825,0.784375,NaN,1,NaN,0.8,491,1,0.759244791666667,5,5
1041,104,1,1,46,1,1,1,455,455,4,1,0,NaN,NaN,NaN,1,-1.38715148141487,0,1,NaN,NaN,1,1,0,1,1,1,0,1,1,0,1,1,1,1,1,1,1,1,1,1,0.708333333333333,0.696428571428572,0.825,0.797916666666667,NaN,1,NaN,0.8,489,1,0.759244791666667,5,5
1041,104,1,1,47,0,1,1,569,569,1,1,0,NaN,NaN,NaN,1,-0.572365813742535,0,0,NaN,NaN,1,1,1,0,1,1,1,0,1,1,1,1,1,1,1,1,1,1,1,1,0.708333333333333,0.69047619047619,0.825,0.811458333333333,NaN,1,NaN,0.8,470.4,1,0.759244791666667,5,5
1041,104,1,1,48,1,1,1,555,555,4,1,0,0.825,NaN,2,2,-0.672427211526857,0,1,NaN,0.825,0,1,1,1,0,1,1,1,0,1,1,1,1,1,1,1,1,1,1,1,0.666666666666667,0.68452380952381,0.825,0.825,NaN,1,NaN,0.6,503.2,1,0.759244791666667,5,5
1041,104,1,1,49,0,1,1,708,708,3,1,0,NaN,NaN,NaN,2,0.421100921401808,0,0,NaN,NaN,1,0,1,1,1,0,1,1,1,0,1,1,1,1,1,1,1,1,1,1,0.666666666666667,0.678571428571429,0.825,0.836904761904762,NaN,1,NaN,0.8,523,1,0.759244791666667,5,5
1041,104,1,1,50,0,1,1,429,429,4,1,1,NaN,NaN,NaN,1,-1.57297979158576,0,0,NaN,NaN,0,1,0,1,1,1,0,1,1,1,1,1,1,1,1,1,1,1,1,1,0.666666666666667,0.672619047619048,0.825,0.848809523809524,NaN,1,NaN,0.6,549.6,1,0.759244791666667,5,5
1041,104,1,1,51,0,1,1,453,453,2,1,0,0.666666666666667,NaN,1,2,-1.40144596681263,0,0,0.666666666666667,NaN,0,0,1,0,1,1,1,0,1,1,1,1,1,1,1,1,1,1,1,1,0.666666666666667,0.666666666666667,0.825,0.860714285714286,NaN,1,NaN,0.4,543.2,1,0.712955729166667,5,5
1041,104,1,1,52,1,1,1,539,539,1,1,0,NaN,NaN,NaN,1,-0.78678309470894,0,1,NaN,NaN,0,0,0,1,0,1,1,1,0,1,1,1,1,1,1,1,1,1,1,1,0.666666666666667,0.6625,0.908333333333333,0.872619047619048,NaN,1,NaN,0.2,542.8,1,0.712955729166667,5,5
1041,104,1,1,53,1,1,1,417,417,2,1,1,NaN,NaN,NaN,1,-1.65874670397232,0,1,NaN,NaN,1,0,0,0,1,0,1,1,1,0,1,1,1,1,1,1,1,1,1,1,0.666666666666667,0.658333333333333,0.908333333333333,0.884523809523809,NaN,1,NaN,0.4,536.8,1,0.712955729166667,5,5
1041,104,1,1,54,1,1,1,527,527,1,1,2,NaN,NaN,NaN,1,-0.872550007095502,0,1,NaN,NaN,1,1,0,0,0,1,0,1,1,1,1,1,1,1,1,1,1,1,1,1,0.641666666666667,0.654166666666667,0.908333333333333,0.896428571428571,NaN,1,NaN,0.4,509.2,1,0.712955729166667,5,5
1041,104,1,1,55,0,1,1,725,725,3,1,0,0.908333333333333,NaN,2,1,0.54260404728277,0,0,NaN,0.908333333333333,1,1,1,0,0,0,1,0,1,1,1,1,1,1,1,1,1,1,1,1,0.641666666666667,0.65,0.908333333333333,0.908333333333333,NaN,1,NaN,0.6,473,1,0.712955729166667,5,5
1041,104,1,1,56,1,1,1,553,553,1,1,1,NaN,NaN,NaN,2,-0.686721696924617,0,1,NaN,NaN,0,1,1,1,0,0,0,1,0,1,1,1,1,1,1,1,1,1,1,1,0.641666666666667,0.645833333333333,0.908333333333333,0.915277777777778,NaN,1,NaN,0.6,532.2,1,0.712955729166667,5,5
1041,104,1,1,57,0,1,1,654,654,3,1,0,0.641666666666667,NaN,1,2,0.0351498156622789,0,0,0.641666666666667,NaN,1,0,1,1,1,0,0,0,1,0,1,1,1,1,1,1,1,1,1,1,0.641666666666667,0.641666666666667,0.908333333333333,0.922222222222222,NaN,1,NaN,0.8,552.2,1,0.677311197916667,5,5
1041,104,1,1,58,0,1,1,815,815,1,1,0,NaN,NaN,NaN,1,1.18585589018199,0,0,NaN,NaN,0,1,0,1,1,1,0,0,0,1,1,1,1,1,1,1,1,1,1,1,0.641666666666667,0.680555555555556,0.95,0.929166666666667,NaN,1,NaN,0.6,575.2,1,0.677311197916667,5,5
1041,104,1,1,59,1,1,1,477,477,4,1,2,NaN,NaN,NaN,2,-1.22991214203951,0,1,NaN,NaN,0,0,1,0,1,1,1,0,0,0,1,1,1,1,1,1,1,1,1,1,0.641666666666667,0.719444444444445,0.95,0.936111111111111,NaN,1,NaN,0.4,654.8,1,0.677311197916667,5,5
1041,104,1,1,60,0,1,1,405,405,3,1,0,NaN,NaN,NaN,2,-1.74451361635888,0,0,NaN,NaN,1,0,0,1,0,1,1,1,0,0,1,1,1,1,1,1,1,1,1,1,0.875,0.758333333333333,0.95,0.943055555555556,NaN,1,NaN,0.4,644.8,1,0.677311197916667,5,5
1041,104,1,1,61,0,1,1,453,453,1,1,2,0.95,NaN,2,1,-1.40144596681263,0,0,NaN,0.95,0,1,0,0,1,0,1,1,1,0,1,1,1,1,1,1,1,1,1,1,0.875,0.797222222222222,0.95,0.95,NaN,1,NaN,0.4,580.8,1,0.677311197916667,5,5
1041,104,1,1,62,1,1,1,590,590,3,1,1,NaN,NaN,NaN,1,-0.422273717066051,0,1,NaN,NaN,0,0,1,0,0,1,0,1,1,1,1,1,1,1,1,1,1,1,1,1,0.875,0.836111111111111,0.95,0.944444444444444,NaN,1,NaN,0.2,560.8,1,0.677311197916667,5,5
1041,104,1,1,63,0,1,1,433,433,1,1,0,0.875,NaN,1,2,-1.54439082079024,0,0,0.875,NaN,1,0,0,1,0,0,1,0,1,1,1,1,1,1,1,1,1,1,1,1,0.875,0.875,0.95,0.938888888888889,NaN,1,NaN,0.4,548,1,0.776155598958333,5,5
1041,104,1,1,64,0,1,1,590,590,3,1,0,NaN,NaN,NaN,2,-0.422273717066051,0,0,NaN,NaN,0,1,0,0,1,0,0,1,0,1,1,1,1,1,1,1,1,1,1,1,0.875,0.835714285714286,0.916666666666667,0.933333333333333,NaN,1,NaN,0.4,471.6,1,0.776155598958333,5,5
1041,104,1,1,65,0,1,1,407,407,4,1,2,NaN,NaN,NaN,1,-1.73021913096112,0,0,NaN,NaN,0,0,1,0,0,1,0,0,1,0,1,1,1,1,1,1,1,1,1,1,0.875,0.796428571428571,0.916666666666667,0.927777777777778,NaN,1,NaN,0.2,494.2,1,0.776155598958333,5,5
1041,104,1,1,66,0,1,1,465,465,3,1,0,NaN,NaN,NaN,1,-1.31567905442607,0,0,NaN,NaN,0,0,0,1,0,0,1,0,0,1,1,1,1,1,1,1,1,1,1,1,0.875,0.757142857142857,0.916666666666667,0.922222222222222,NaN,1,NaN,0.2,494.6,1,0.776155598958333,5,5
1041,104,1,1,67,0,1,1,380,380,4,1,1,0.916666666666667,NaN,2,1,-1.92319468383089,0,0,NaN,0.916666666666667,0,0,0,0,1,0,0,1,0,0,1,1,1,1,1,1,1,1,1,1,0.6,0.717857142857143,0.916666666666667,0.916666666666667,NaN,1,NaN,0.2,497,1,0.776155598958333,5,5
1041,104,1,1,68,0,1,1,773,773,1,1,1,NaN,NaN,NaN,2,0.885671696829018,0,0,NaN,NaN,0,0,0,0,0,1,0,0,1,0,1,1,1,1,1,1,1,1,1,1,0.6,0.678571428571429,0.916666666666667,0.881666666666667,NaN,1,NaN,0,455,1,0.776155598958333,5,5
1041,104,1,1,69,0,1,0,543,NaN,3,1,2,NaN,NaN,NaN,1,NaN,0,0,NaN,NaN,0,0,0,0,0,0,1,0,0,1,1,1,1,1,1,1,1,1,1,1,0.6,0.639285714285714,0.916666666666667,0.846666666666667,NaN,1,NaN,0,NaN,1,0.776155598958333,5,5
1041,104,1,1,70,1,1,1,623,623,2,1,0,0.6,NaN,1,2,-0.186414708003006,0,1,0.6,NaN,0,0,0,0,0,0,0,1,0,0,1,1,1,1,1,1,1,1,1,1,0.6,0.6,0.741666666666667,0.811666666666667,NaN,1,NaN,0,NaN,0.8,0.688077799479167,5,5
1041,104,1,1,71,0,1,1,498,498,4,1,2,NaN,NaN,NaN,2,-1.07982004536303,0,0,NaN,NaN,1,0,0,0,0,0,0,0,1,0,1,1,1,1,1,1,1,1,1,1,0.6,0.641666666666667,0.741666666666667,0.776666666666667,NaN,1,NaN,0.2,NaN,0.8,0.688077799479167,5,5
1041,104,1,1,72,1,1,1,477,477,1,1,0,0.741666666666667,NaN,2,1,-1.22991214203951,0,1,NaN,0.741666666666667,0,1,0,0,0,0,0,0,0,1,1,1,1,1,1,1,1,1,1,1,0.766666666666667,0.683333333333333,0.741666666666667,0.741666666666667,NaN,1,NaN,0.2,NaN,0.8,0.688077799479167,5,5
1041,104,1,2,73,0,1,1,576,576,2,1,2,NaN,NaN,NaN,2,-0.522335114850374,0,0,NaN,NaN,1,0,1,0,0,0,0,0,0,0,1,1,1,1,1,1,1,1,1,1,0.766666666666667,0.725,0.741666666666667,0.768055555555556,NaN,1,NaN,0.4,NaN,0.8,NaN,5,5
1041,104,1,2,74,0,1,1,415,415,4,1,1,0.766666666666667,NaN,1,2,-1.67304118937008,0,0,0.766666666666667,NaN,0,1,0,1,0,0,0,0,0,0,1,1,1,1,1,1,1,1,1,1,0.766666666666667,0.766666666666667,0.741666666666667,0.794444444444445,NaN,1,NaN,0.4,NaN,0.8,0.766666666666667,5,5
1041,104,1,2,75,0,1,1,407,407,1,1,2,NaN,NaN,NaN,1,-1.73021913096112,0,0,NaN,NaN,0,0,1,0,1,0,0,0,0,0,1,1,1,1,1,1,1,1,1,1,0.766666666666667,0.745833333333333,0.9,0.820833333333333,NaN,1,NaN,0.4,517.8,1,0.766666666666667,5,5
1041,104,1,2,76,0,1,1,468,468,2,1,1,NaN,NaN,NaN,2,-1.29423732632943,0,0,NaN,NaN,0,0,0,1,0,1,0,0,0,0,1,1,1,1,1,1,1,1,1,1,0.766666666666667,0.725,0.9,0.847222222222222,NaN,1,NaN,0.2,474.6,1,0.766666666666667,5,5
1041,104,1,2,77,0,1,1,458,458,4,1,0,NaN,NaN,NaN,1,-1.36570975331823,0,0,NaN,NaN,0,0,0,0,1,0,1,0,0,0,1,1,1,1,1,1,1,1,1,1,0.641666666666667,0.704166666666667,0.9,0.873611111111111,NaN,1,NaN,0.2,468.6,1,0.766666666666667,5,5
1041,104,1,2,78,0,1,1,482,482,2,1,2,0.9,NaN,2,1,-1.19417592854511,0,0,NaN,0.9,0,0,0,0,0,1,0,1,0,0,1,1,1,1,1,1,1,1,1,1,0.641666666666667,0.683333333333333,0.9,0.9,NaN,1,NaN,0,464.8,1,0.766666666666667,5,5
1041,104,1,2,79,0,1,1,575,575,3,1,0,NaN,NaN,NaN,1,-0.529482357549254,0,0,NaN,NaN,0,0,0,0,0,0,1,0,1,0,1,1,1,1,1,1,1,1,1,1,0.641666666666667,0.6625,0.9,0.911666666666667,NaN,1,NaN,0,446,1,0.766666666666667,5,5
1041,104,1,2,80,1,1,1,397,397,4,1,1,0.641666666666667,NaN,1,2,-1.80169155794992,0,1,0.641666666666667,NaN,0,0,0,0,0,0,0,1,0,1,1,1,1,1,1,1,1,1,1,1,0.641666666666667,0.641666666666667,0.9,0.923333333333333,NaN,1,NaN,0,478,1,0.704166666666667,5,5
1041,104,1,2,81,1,1,1,567,567,3,1,2,NaN,NaN,NaN,1,-0.586660299140295,0,1,NaN,NaN,1,0,0,0,0,0,0,0,1,0,1,1,1,1,1,1,1,1,1,1,0.641666666666667,0.658333333333333,0.958333333333333,0.935,NaN,1,NaN,0.2,476,1,0.704166666666667,5,5
1041,104,1,2,82,0,1,1,524,524,1,1,1,NaN,NaN,NaN,1,-0.893991735192142,0,0,NaN,NaN,1,1,0,0,0,0,0,0,0,1,1,1,1,1,1,1,1,1,1,1,0.641666666666667,0.675,0.958333333333333,0.946666666666667,NaN,1,NaN,0.4,495.8,1,0.704166666666667,5,5
1041,104,1,2,83,0,1,1,491,491,3,1,2,0.958333333333333,NaN,2,1,-1.12985074425519,0,0,NaN,0.958333333333333,0,1,1,0,0,0,0,0,0,0,1,1,1,1,1,1,1,1,1,1,0.741666666666667,0.691666666666667,0.958333333333333,0.958333333333333,NaN,1,NaN,0.4,509,1,0.704166666666667,5,5
1041,104,1,2,84,0,1,1,561,561,1,1,0,NaN,NaN,NaN,1,-0.629543755333576,0,0,NaN,NaN,0,0,1,1,0,0,0,0,0,0,1,1,1,1,1,1,1,1,1,1,0.741666666666667,0.708333333333333,0.958333333333333,0.959722222222222,NaN,1,NaN,0.4,510.8,1,0.704166666666667,5,5
1041,104,1,2,85,0,1,1,883,883,3,1,2,NaN,NaN,NaN,2,1.67186839370584,0,0,NaN,NaN,0,0,0,1,1,0,0,0,0,0,1,1,1,1,1,1,1,1,1,1,0.741666666666667,0.725,0.958333333333333,0.961111111111111,NaN,1,NaN,0.4,508,1,0.704166666666667,5,5
1041,104,1,2,86,0,1,1,434,434,2,1,0,0.741666666666667,NaN,1,1,-1.53724357809136,0,0,0.741666666666667,NaN,0,0,0,0,1,1,0,0,0,0,1,1,1,1,1,1,1,1,1,1,0.741666666666667,0.741666666666667,0.966666666666667,0.9625,NaN,1,NaN,0.2,605.2,1,0.722916666666667,5,5
1041,104,1,2,87,0,1,0,518,NaN,3,1,1,NaN,NaN,NaN,2,NaN,0,0,NaN,NaN,0,0,0,0,0,1,1,0,0,0,1,1,1,1,1,1,1,1,1,1,0.741666666666667,0.728571428571429,0.966666666666667,0.963888888888889,NaN,1,NaN,0,NaN,1,0.722916666666667,5,5
1041,104,1,2,88,0,1,1,503,503,3,1,2,NaN,NaN,NaN,1,-1.04408383186863,0,0,NaN,NaN,0,0,0,0,0,0,1,1,0,0,1,1,1,1,1,1,1,1,1,1,0.741666666666667,0.71547619047619,0.966666666666667,0.965277777777778,NaN,1,NaN,0,NaN,0.8,0.722916666666667,5,5
1041,104,1,2,89,0,1,1,634,634,4,1,0,0.966666666666667,NaN,2,1,-0.107795038315324,0,0,NaN,0.966666666666667,0,0,0,0,0,0,0,1,1,0,1,1,1,1,1,1,1,1,1,1,0.741666666666667,0.702380952380952,0.966666666666667,0.966666666666667,NaN,1,NaN,0,NaN,0.8,0.722916666666667,5,5
1041,104,1,2,90,0,1,1,517,517,1,1,2,NaN,NaN,NaN,2,-0.944022434084303,0,0,NaN,NaN,0,0,0,0,0,0,0,0,1,1,1,1,1,1,1,1,1,1,1,1,0.65,0.689285714285714,0.966666666666667,0.955208333333333,NaN,1,NaN,0,NaN,0.8,0.722916666666667,5,5
1041,104,1,2,91,0,1,1,456,456,4,1,1,NaN,NaN,NaN,2,-1.38000423871599,0,0,NaN,NaN,0,0,0,0,0,0,0,0,0,1,1,1,1,1,1,1,1,1,1,1,0.65,0.676190476190476,0.966666666666667,0.94375,NaN,1,NaN,0,NaN,0.8,0.722916666666667,5,5
1041,104,1,2,92,0,1,1,719,719,2,1,2,NaN,NaN,NaN,1,0.499720591089489,0,0,NaN,NaN,0,0,0,0,0,0,0,0,0,0,1,1,1,1,1,1,1,1,1,1,0.65,0.663095238095238,0.966666666666667,0.932291666666667,NaN,1,NaN,0,NaN,0.8,0.722916666666667,5,5
1041,104,1,2,93,0,1,1,745,745,3,1,1,0.65,NaN,1,1,0.685548901260374,0,0,0.65,NaN,0,0,0,0,0,0,0,0,0,0,1,1,1,1,1,1,1,1,1,1,0.65,0.65,0.875,0.920833333333333,NaN,1,NaN,0,565.8,1,0.686458333333333,5,5
1041,104,1,2,94,0,1,1,523,523,2,1,0,NaN,NaN,NaN,1,-0.901138977891022,0,0,NaN,NaN,0,0,0,0,0,0,0,0,0,0,1,1,1,1,1,1,1,1,1,1,0.65,0.642857142857143,0.875,0.909375,NaN,1,NaN,0,614.2,1,0.686458333333333,5,5
1041,104,1,2,95,0,1,1,484,484,1,1,1,NaN,NaN,NaN,2,-1.17988144314735,0,0,NaN,NaN,0,0,0,0,0,0,0,0,0,0,1,1,1,1,1,1,1,1,1,1,0.65,0.635714285714286,0.875,0.897916666666667,NaN,1,NaN,0,592,1,0.686458333333333,5,5
1041,104,1,2,96,1,1,1,543,543,3,1,0,NaN,NaN,NaN,1,-0.758194123913419,0,1,NaN,NaN,0,0,0,0,0,0,0,0,0,0,1,1,1,1,1,1,1,1,1,1,0.65,0.628571428571429,0.875,0.886458333333333,NaN,1,NaN,0,585.4,1,0.686458333333333,5,5
1041,104,1,2,97,0,1,1,515,515,2,1,0,0.875,NaN,2,2,-0.958316919482064,0,0,NaN,0.875,1,0,0,0,0,0,0,0,0,0,1,1,1,1,1,1,1,1,1,1,0.6,0.621428571428571,0.875,0.875,NaN,1,NaN,0.2,602.8,1,0.686458333333333,5,5
1041,104,1,2,98,0,1,1,524,524,3,1,1,NaN,NaN,NaN,1,-0.893991735192142,0,0,NaN,NaN,0,1,0,0,0,0,0,0,0,0,1,1,1,1,1,1,1,1,1,1,0.6,0.614285714285714,0.875,0.89,NaN,1,NaN,0.2,562,1,0.686458333333333,5,5
1041,104,1,2,99,0,1,1,466,466,4,1,1,NaN,NaN,NaN,1,-1.30853181172719,0,0,NaN,NaN,0,0,1,0,0,0,0,0,0,0,1,1,1,1,1,1,1,1,1,1,0.6,0.607142857142857,0.875,0.905,NaN,1,NaN,0.2,517.8,1,0.686458333333333,5,5
1041,104,1,2,100,0,1,1,460,460,3,1,1,0.6,NaN,1,1,-1.35141526792047,0,0,0.6,NaN,0,0,0,1,0,0,0,0,0,0,1,1,1,1,1,1,1,1,1,1,0.6,0.6,0.95,0.92,NaN,1,NaN,0.2,506.4,1,0.643229166666667,5,5
1041,104,1,2,101,0,1,1,825,825,2,1,0,NaN,NaN,NaN,2,1.25732831717079,0,0,NaN,NaN,0,0,0,0,1,0,0,0,0,0,1,1,1,1,1,1,1,1,1,1,0.6,0.6,0.95,0.935,NaN,1,NaN,0.2,501.6,1,0.643229166666667,5,5
1041,104,1,2,102,0,1,1,612,612,3,1,2,0.95,NaN,2,1,-0.265034377690688,0,0,NaN,0.95,0,0,0,0,0,1,0,0,0,0,1,1,1,1,1,1,1,1,1,1,0.6,0.6,0.95,0.95,NaN,1,NaN,0,558,1,0.643229166666667,5,5
1041,104,1,2,103,0,1,1,657,657,2,1,0,NaN,NaN,NaN,2,0.0565915437589194,0,0,NaN,NaN,0,0,0,0,0,0,1,0,0,0,1,1,1,1,1,1,1,1,1,1,0.6,0.6,0.95,0.95,NaN,1,NaN,0,577.4,1,0.643229166666667,5,5
1041,104,1,2,104,0,1,1,482,482,3,1,1,NaN,NaN,NaN,1,-1.19417592854511,0,0,NaN,NaN,0,0,0,0,0,0,0,1,0,0,1,1,1,1,1,1,1,1,1,1,0.6,0.6,0.95,0.95,NaN,1,NaN,0,604,1,0.643229166666667,5,5
1041,104,1,2,105,0,1,1,504,504,2,1,2,0.6,NaN,1,1,-1.03693658916975,0,0,0.6,NaN,0,0,0,0,0,0,0,0,1,0,1,1,1,1,1,1,1,1,1,1,0.6,0.6,0.95,0.95,NaN,1,NaN,0,607.2,1,0.621614583333333,5,5
1041,104,1,2,106,0,1,1,609,609,3,1,0,NaN,NaN,NaN,1,-0.286476105787328,0,0,NaN,NaN,0,0,0,0,0,0,0,0,0,1,1,1,1,1,1,1,1,1,1,1,0.6,0.616666666666667,0.95,0.95,NaN,1,NaN,0,616,1,0.621614583333333,5,5
1041,104,1,2,107,0,1,1,400,400,4,1,2,0.95,NaN,2,2,-1.78024982985328,0,0,NaN,0.95,0,0,0,0,0,0,0,0,0,0,1,1,1,1,1,1,1,1,1,1,0.666666666666667,0.633333333333333,0.95,0.95,NaN,1,NaN,0,572.8,1,0.621614583333333,5,5
1041,104,1,2,108,1,1,1,791,791,1,0,1,NaN,NaN,NaN,2,1.01432206540886,0,1,NaN,NaN,0,0,0,0,0,0,0,0,0,0,1,1,1,1,1,1,1,1,1,1,0.666666666666667,0.65,0.95,0.918333333333333,NaN,1,NaN,0,530.4,1,0.621614583333333,5,5
1041,104,1,2,109,0,1,0,352,NaN,3,1,1,0.666666666666667,NaN,1,2,NaN,0,0,0.666666666666667,NaN,1,0,0,0,0,0,0,0,0,0,0,1,1,1,1,1,1,1,1,1,0.666666666666667,0.666666666666667,0.95,0.886666666666667,NaN,0.8,NaN,0.2,NaN,1,0.644140625,5,5
1041,104,1,2,110,0,1,1,674,674,3,1,0,NaN,NaN,NaN,2,0.178094669639882,0,0,NaN,NaN,0,1,0,0,0,0,0,0,0,0,1,0,1,1,1,1,1,1,1,1,0.666666666666667,0.645238095238095,0.791666666666667,0.855,NaN,0.8,NaN,0.2,NaN,0.8,0.644140625,5,5
1041,104,1,2,111,0,1,1,561,561,1,0,2,NaN,NaN,NaN,1,-0.629543755333576,0,0,NaN,NaN,0,0,1,0,0,0,0,0,0,0,1,1,0,1,1,1,1,1,1,1,0.666666666666667,0.623809523809524,0.791666666666667,0.823333333333333,NaN,0.8,NaN,0.2,NaN,0.8,0.644140625,5,5
1041,104,1,2,112,0,1,1,513,513,4,1,0,0.791666666666667,NaN,2,1,-0.972611404879824,0,0,NaN,0.791666666666667,0,0,0,1,0,0,0,0,0,0,0,1,1,0,1,1,1,1,1,1,0.666666666666667,0.602380952380952,0.791666666666667,0.791666666666667,NaN,0.6,NaN,0.2,NaN,0.8,0.644140625,5,5
1041,104,1,2,113,0,1,1,575,575,3,0,2,NaN,NaN,NaN,1,-0.529482357549254,0,0,NaN,NaN,0,0,0,0,1,0,0,0,0,0,1,0,1,1,0,1,1,1,1,1,0.516666666666667,0.580952380952381,0.791666666666667,0.814583333333333,NaN,0.6,NaN,0.2,NaN,0.8,0.644140625,5,5
1041,104,1,2,114,0,1,1,717,717,1,1,1,NaN,NaN,NaN,1,0.485426105691729,0,0,NaN,NaN,0,0,0,0,0,1,0,0,0,0,0,1,0,1,1,0,1,1,1,1,0.516666666666667,0.55952380952381,0.791666666666667,0.8375,NaN,0.6,NaN,0,NaN,0.8,0.644140625,5,5
1041,104,1,2,115,0,1,1,579,579,2,1,0,NaN,NaN,NaN,1,-0.500893386753733,0,0,NaN,NaN,0,0,0,0,0,0,1,0,0,0,1,0,1,0,1,1,0,1,1,1,0.516666666666667,0.538095238095238,0.791666666666667,0.860416666666667,NaN,0.6,NaN,0,608,1,0.644140625,5,5
1041,104,1,2,116,0,1,1,482,482,3,1,0,0.516666666666667,NaN,1,1,-1.19417592854511,0,0,0.516666666666667,NaN,0,0,0,0,0,0,0,1,0,0,1,1,0,1,0,1,1,0,1,1,0.516666666666667,0.516666666666667,0.975,0.883333333333333,NaN,0.6,NaN,0,589,1,0.580403645833333,5,5
1041,104,1,2,117,0,1,1,569,569,2,1,1,NaN,NaN,NaN,2,-0.572365813742535,0,0,NaN,NaN,0,0,0,0,0,0,0,0,1,0,1,1,1,0,1,0,1,1,0,1,0.516666666666667,0.542857142857143,0.975,0.90625,NaN,0.8,NaN,0,573.2,1,0.580403645833333,5,5
1041,104,1,2,118,0,1,1,567,567,4,1,0,NaN,NaN,NaN,2,-0.586660299140295,0,0,NaN,NaN,0,0,0,0,0,0,0,0,0,1,1,1,1,1,0,1,0,1,1,0,0.516666666666667,0.569047619047619,0.975,0.929166666666667,NaN,0.8,NaN,0,584.4,1,0.580403645833333,5,5
1041,104,1,2,119,0,1,1,564,564,1,1,1,NaN,NaN,NaN,1,-0.608102027236936,0,0,NaN,NaN,0,0,0,0,0,0,0,0,0,0,1,1,1,1,1,0,1,0,1,1,0.516666666666667,0.595238095238095,0.975,0.952083333333333,NaN,1,NaN,0,582.8,1,0.580403645833333,5,5
1041,104,1,2,120,0,1,1,350,350,2,1,2,0.975,NaN,2,2,-2.13761196479729,0,0,NaN,0.975,0,0,0,0,0,0,0,0,0,0,1,1,1,1,1,1,0,1,0,1,0.7,0.621428571428571,0.975,0.975,NaN,1,NaN,0,552.2,1,0.580403645833333,5,5
1041,104,1,2,121,0,1,1,618,618,1,1,1,NaN,NaN,NaN,1,-0.222150921497407,0,0,NaN,NaN,0,0,0,0,0,0,0,0,0,0,1,1,1,1,1,1,1,0,1,0,0.7,0.647619047619048,0.975,0.896428571428571,NaN,1,NaN,0,506.4,1,0.580403645833333,5,5
1041,104,1,2,122,0,1,1,651,651,4,1,1,NaN,NaN,NaN,1,0.0137080875656384,0,0,NaN,NaN,0,0,0,0,0,0,0,0,0,0,1,1,1,1,1,1,1,1,0,1,0.7,0.673809523809524,0.975,0.817857142857143,NaN,1,NaN,0,533.6,1,0.580403645833333,5,5
1041,104,1,2,123,0,1,1,433,433,2,1,2,0.7,NaN,1,1,-1.54439082079024,0,0,0.7,NaN,0,0,0,0,0,0,0,0,0,0,1,1,1,1,1,1,1,1,1,0,0.7,0.7,0.975,0.739285714285714,NaN,1,NaN,0,550,1,0.640201822916667,5,5
1041,104,1,2,124,0,1,1,594,594,3,0,0,NaN,NaN,NaN,2,-0.393684746270531,0,0,NaN,NaN,0,0,0,0,0,0,0,0,0,0,1,1,1,1,1,1,1,1,1,1,0.7,0.65,0.425,0.660714285714286,NaN,1,NaN,0,523.2,1,0.640201822916667,5,5
1041,104,1,2,125,0,1,1,503,503,1,1,1,NaN,NaN,NaN,2,-1.04408383186863,0,0,NaN,NaN,0,0,0,0,0,0,0,0,0,0,0,1,1,1,1,1,1,1,1,1,0.7,0.6,0.425,0.582142857142857,NaN,0.8,NaN,0,529.2,1,0.640201822916667,5,5
1041,104,1,2,126,0,1,1,660,660,3,0,1,NaN,NaN,NaN,1,0.0780332718555599,0,0,NaN,NaN,0,0,0,0,0,0,0,0,0,0,1,0,1,1,1,1,1,1,1,1,0.4,0.55,0.425,0.503571428571429,NaN,0.8,NaN,0,559.8,1,0.640201822916667,5,5
1041,104,1,2,127,0,1,1,639,639,1,0,2,0.425,NaN,2,1,-0.0720588248209235,0,0,NaN,0.425,0,0,0,0,0,0,0,0,0,0,0,1,0,1,1,1,1,1,1,1,0.4,0.5,0.425,0.425,NaN,0.6,NaN,0,568.2,1,0.640201822916667,5,5
1041,104,1,2,128,0,1,1,663,663,3,1,1,NaN,NaN,NaN,1,0.0994749999522004,0,0,NaN,NaN,0,0,0,0,0,0,0,0,0,0,0,0,1,0,1,1,1,1,1,1,0.4,0.45,0.425,0.472222222222222,NaN,0.4,NaN,0,565.8,1,0.640201822916667,5,5
1041,104,1,2,129,0,1,1,523,523,1,1,0,0.4,NaN,1,1,-0.901138977891022,0,0,0.4,NaN,0,0,0,0,0,0,0,0,0,0,1,0,0,1,0,1,1,1,1,1,0.4,0.4,0.425,0.519444444444444,NaN,0.4,NaN,0,611.8,1,0.520100911458333,5,5
1041,104,1,2,130,1,1,0,423,NaN,1,0,1,NaN,NaN,NaN,1,NaN,0,1,NaN,NaN,0,0,0,0,0,0,0,0,0,0,1,1,0,0,1,0,1,1,1,1,0.4,0.468055555555556,0.708333333333333,0.566666666666667,NaN,0.6,NaN,0,NaN,1,0.520100911458333,5,5
1041,104,1,2,131,0,1,1,683,683,1,1,0,NaN,NaN,NaN,1,0.242419853929804,0,0,NaN,NaN,1,0,0,0,0,0,0,0,0,0,0,1,1,0,0,1,0,1,1,1,0.4,0.536111111111111,0.708333333333333,0.613888888888889,NaN,0.4,NaN,0.2,NaN,0.8,0.520100911458333,5,5
1041,104,1,2,132,0,1,1,461,461,3,1,1,NaN,NaN,NaN,1,-1.34426802522159,0,0,NaN,NaN,0,1,0,0,0,0,0,0,0,0,1,0,1,1,0,0,1,0,1,1,0.808333333333333,0.604166666666667,0.708333333333333,0.661111111111111,NaN,0.6,NaN,0.2,NaN,0.8,0.520100911458333,5,5
1041,104,1,2,133,1,1,0,610,NaN,1,0,0,0.708333333333333,NaN,2,2,NaN,0,1,NaN,0.708333333333333,0,0,1,0,0,0,0,0,0,0,1,1,0,1,1,0,0,1,0,1,0.808333333333333,0.672222222222222,0.708333333333333,0.708333333333333,NaN,0.8,NaN,0.2,NaN,0.8,0.520100911458333,5,5
1041,104,1,2,134,0,1,1,573,573,3,1,2,NaN,NaN,NaN,2,-0.543776842947014,0,0,NaN,NaN,1,0,0,1,0,0,0,0,0,0,0,1,1,0,1,1,0,0,1,0,0.808333333333333,0.740277777777778,0.708333333333333,0.697222222222222,NaN,0.6,NaN,0.4,NaN,0.6,0.520100911458333,5,5
1041,104,1,2,135,0,1,1,443,443,2,0,1,0.808333333333333,NaN,1,2,-1.47291839380144,0,0,0.808333333333333,NaN,0,1,0,0,1,0,0,0,0,0,1,0,1,1,0,1,1,0,0,1,0.808333333333333,0.808333333333333,0.708333333333333,0.686111111111111,NaN,0.6,NaN,0.4,NaN,0.6,0.664217122395833,5,5
1041,104,1,2,136,0,1,1,508,508,3,0,1,NaN,NaN,NaN,2,-1.00834761837422,0,0,NaN,NaN,0,0,1,0,0,1,0,0,0,0,0,1,0,1,1,0,1,1,0,0,0.808333333333333,0.778571428571429,0.641666666666667,0.675,NaN,0.6,NaN,0.2,NaN,0.8,0.664217122395833,5,5
1041,104,1,2,137,1,1,1,423,423,2,1,1,NaN,NaN,NaN,1,-1.61586324777904,0,1,NaN,NaN,0,0,0,1,0,0,1,0,0,0,0,0,1,0,1,1,0,1,1,0,0.808333333333333,0.748809523809524,0.641666666666667,0.663888888888889,NaN,0.4,NaN,0.2,NaN,0.8,0.664217122395833,5,5
1041,104,1,2,138,0,1,0,579,NaN,3,0,0,NaN,NaN,NaN,2,NaN,0,0,NaN,NaN,1,0,0,0,1,0,0,1,0,0,1,0,0,1,0,1,1,0,1,1,0.808333333333333,0.719047619047619,0.641666666666667,0.652777777777778,NaN,0.4,NaN,0.4,NaN,0.8,0.664217122395833,5,5
1041,104,1,2,139,1,1,1,483,483,4,1,2,0.641666666666667,NaN,2,2,-1.18702868584623,0,1,NaN,0.641666666666667,0,1,0,0,0,1,0,0,1,0,0,1,0,0,1,0,1,1,0,1,0.6,0.689285714285714,0.641666666666667,0.641666666666667,NaN,0.4,NaN,0.2,NaN,0.8,0.664217122395833,5,5
1041,104,1,2,140,0,1,1,471,471,2,1,1,NaN,NaN,NaN,1,-1.27279559823279,0,0,NaN,NaN,1,0,1,0,0,0,1,0,0,1,1,0,1,0,0,1,0,1,1,0,0.6,0.65952380952381,0.641666666666667,0.66,NaN,0.4,NaN,0.4,NaN,0.8,0.664217122395833,5,5
1041,104,1,2,141,1,1,1,475,475,4,1,1,NaN,NaN,NaN,1,-1.24420662743727,0,1,NaN,NaN,0,1,0,1,0,0,0,1,0,0,1,1,0,1,0,0,1,0,1,1,0.6,0.629761904761905,0.641666666666667,0.678333333333333,NaN,0.6,NaN,0.4,NaN,0.8,0.664217122395833,5,5
1041,104,1,2,142,0,1,1,467,467,3,1,1,0.6,NaN,1,1,-1.30138456902831,0,0,0.6,NaN,1,0,1,0,1,0,0,0,1,0,1,1,1,0,1,0,0,1,0,1,0.6,0.6,0.733333333333333,0.696666666666667,NaN,0.8,NaN,0.6,NaN,0.8,0.632108561197917,5,5
1041,104,1,2,143,0,1,1,441,441,4,1,2,NaN,NaN,NaN,1,-1.4872128791992,0,0,NaN,NaN,0,1,0,1,0,1,0,0,0,1,1,1,1,1,0,1,0,0,1,0,0.6,0.670833333333333,0.733333333333333,0.715,NaN,0.8,NaN,0.4,NaN,0.8,0.632108561197917,5,5
1041,104,1,2,144,1,1,1,656,656,3,0,0,0.733333333333333,NaN,2,1,0.0494443010600392,0,1,NaN,0.733333333333333,0,0,1,0,1,0,1,0,0,0,1,1,1,1,1,0,1,0,0,1,0.883333333333333,0.741666666666667,0.733333333333333,0.733333333333333,NaN,1,NaN,0.4,467.4,1,0.632108561197917,5,5
1041,104,1,3,145,1,1,1,448,448,1,1,0,NaN,NaN,NaN,1,-1.43718218030703,0,1,NaN,NaN,1,0,0,1,0,1,0,1,0,0,0,1,1,1,1,1,0,1,0,0,0.883333333333333,0.8125,0.733333333333333,0.754166666666667,NaN,0.8,NaN,0.4,502,1,NaN,5,5
1041,104,1,3,146,1,1,1,381,381,2,1,2,0.883333333333333,NaN,1,2,-1.91604744113201,0,1,0.883333333333333,NaN,1,1,0,0,1,0,1,0,1,0,1,0,1,1,1,1,1,0,1,0,0.883333333333333,0.883333333333333,0.733333333333333,0.775,NaN,0.8,NaN,0.6,497.4,1,0.883333333333333,5,5
1041,104,1,3,147,1,1,1,544,544,3,1,1,NaN,NaN,NaN,1,-0.751046881214539,0,1,NaN,NaN,1,1,1,0,0,1,0,1,0,1,1,1,0,1,1,1,1,1,0,1,0.883333333333333,0.851388888888889,0.858333333333333,0.795833333333333,NaN,0.8,NaN,0.6,478.6,1,0.883333333333333,5,5
1041,104,1,3,148,0,1,1,531,531,1,1,2,NaN,NaN,NaN,1,-0.843961036299981,0,0,NaN,NaN,1,1,1,1,0,0,1,0,1,0,1,1,1,0,1,1,1,1,1,0,0.883333333333333,0.819444444444444,0.858333333333333,0.816666666666667,NaN,0.8,NaN,0.8,494,1,0.883333333333333,5,5
1041,104,1,3,149,1,1,1,458,458,4,1,0,NaN,NaN,NaN,1,-1.36570975331823,0,1,NaN,NaN,0,1,1,1,1,0,0,1,0,1,1,1,1,1,0,1,1,1,1,1,0.691666666666667,0.7875,0.858333333333333,0.8375,NaN,0.8,NaN,0.8,512,1,0.883333333333333,5,5
1041,104,1,3,150,1,1,1,394,394,2,1,2,0.858333333333333,NaN,2,1,-1.82313328604656,0,1,NaN,0.858333333333333,1,0,1,1,1,1,0,0,1,0,1,1,1,1,1,0,1,1,1,1,0.691666666666667,0.755555555555556,0.858333333333333,0.858333333333333,NaN,1,NaN,0.8,472.4,1,0.883333333333333,5,5
1041,104,1,3,151,1,1,1,519,519,3,1,1,NaN,NaN,NaN,1,-0.929727948686543,0,1,NaN,NaN,1,1,0,1,1,1,1,0,0,1,1,1,1,1,1,1,0,1,1,1,0.691666666666667,0.723611111111111,0.858333333333333,0.823333333333333,NaN,1,NaN,0.8,461.6,1,0.883333333333333,5,5
1041,104,1,3,152,1,1,1,397,397,1,1,1,0.691666666666667,NaN,1,2,-1.80169155794992,0,1,0.691666666666667,NaN,1,1,1,0,1,1,1,1,0,0,1,1,1,1,1,1,1,0,1,1,0.691666666666667,0.691666666666667,0.858333333333333,0.788333333333333,NaN,1,NaN,0.8,489.2,1,0.7875,5,5
1041,104,1,3,153,1,1,1,331,331,4,1,2,NaN,NaN,NaN,2,-2.27340957607601,0,1,NaN,NaN,1,1,1,1,0,1,1,1,1,0,1,1,1,1,1,1,1,1,0,1,0.691666666666667,0.686111111111111,0.683333333333333,0.753333333333333,NaN,1,NaN,0.8,459.8,1,0.7875,5,5
1041,104,1,3,154,1,1,1,512,512,2,1,0,NaN,NaN,NaN,2,-0.979758647578704,0,1,NaN,NaN,1,1,1,1,1,0,1,1,1,1,1,1,1,1,1,1,1,1,1,0,0.691666666666667,0.680555555555556,0.683333333333333,0.718333333333333,NaN,1,NaN,1,419.8,1,0.7875,5,5
1041,104,1,3,155,1,1,1,567,567,3,1,0,0.683333333333333,NaN,2,2,-0.586660299140295,0,1,NaN,0.683333333333333,1,1,1,1,1,1,0,1,1,1,1,1,1,1,1,1,1,1,1,1,0.658333333333333,0.675,0.683333333333333,0.683333333333333,NaN,1,NaN,1,430.6,1,0.7875,5,5
1041,104,1,3,156,1,1,1,455,455,2,1,2,NaN,NaN,NaN,1,-1.38715148141487,0,1,NaN,NaN,1,1,1,1,1,1,1,0,1,1,1,1,1,1,1,1,1,1,1,1,0.658333333333333,0.669444444444445,0.683333333333333,0.680555555555556,NaN,1,NaN,1,465.2,1,0.7875,5,5
1041,104,1,3,157,1,1,1,637,637,1,1,1,NaN,NaN,NaN,2,-0.0863533102186839,0,1,NaN,NaN,1,1,1,1,1,1,1,1,0,1,1,1,1,1,1,1,1,1,1,1,0.658333333333333,0.663888888888889,0.683333333333333,0.677777777777778,NaN,1,NaN,1,452.4,1,0.7875,5,5
1041,104,1,3,158,1,1,1,373,373,4,1,2,0.658333333333333,NaN,1,1,-1.97322538272305,0,1,0.658333333333333,NaN,1,1,1,1,1,1,1,1,1,0,1,1,1,1,1,1,1,1,1,1,0.658333333333333,0.658333333333333,0.666666666666667,0.675,NaN,1,NaN,1,500.4,1,0.722916666666667,5,5
1041,104,1,3,159,0,1,0,551,NaN,3,1,0,NaN,NaN,NaN,2,NaN,0,0,NaN,NaN,1,1,1,1,1,1,1,1,1,1,1,1,1,1,1,1,1,1,1,1,0.658333333333333,0.657142857142857,0.666666666666667,0.672222222222222,NaN,1,NaN,1,NaN,1,0.722916666666667,5,5
1041,104,1,3,160,0,1,1,541,541,3,1,1,NaN,NaN,NaN,1,-0.772488609311179,0,0,NaN,NaN,0,1,1,1,1,1,1,1,1,1,1,1,1,1,1,1,1,1,1,1,0.658333333333333,0.655952380952381,0.666666666666667,0.669444444444445,NaN,1,NaN,0.8,NaN,0.8,0.722916666666667,5,5
1041,104,1,3,161,1,1,1,555,555,1,1,0,0.666666666666667,NaN,2,1,-0.672427211526857,0,1,NaN,0.666666666666667,0,0,1,1,1,1,1,1,1,1,1,1,1,1,1,1,1,1,1,1,0.658333333333333,0.654761904761905,0.666666666666667,0.666666666666667,NaN,1,NaN,0.6,NaN,0.8,0.722916666666667,5,5
1041,104,1,3,162,0,1,1,497,497,2,1,1,NaN,NaN,NaN,1,-1.08696728806191,0,0,NaN,NaN,1,0,0,1,1,1,1,1,1,1,1,1,1,1,1,1,1,1,1,1,0.65,0.653571428571429,0.666666666666667,0.684375,NaN,1,NaN,0.6,NaN,0.8,0.722916666666667,5,5
1041,104,1,3,163,0,1,1,408,408,1,1,1,NaN,NaN,NaN,2,-1.72307188826224,0,0,NaN,NaN,0,1,0,0,1,1,1,1,1,1,1,1,1,1,1,1,1,1,1,1,0.65,0.652380952380952,0.666666666666667,0.702083333333333,NaN,1,NaN,0.4,NaN,0.8,0.722916666666667,5,5
1041,104,1,3,164,0,1,0,373,NaN,4,1,1,NaN,NaN,NaN,1,NaN,0,0,NaN,NaN,0,0,1,0,0,1,1,1,1,1,1,1,1,1,1,1,1,1,1,1,0.65,0.651190476190476,0.666666666666667,0.719791666666667,NaN,1,NaN,0.2,NaN,0.8,0.722916666666667,5,5
1041,104,1,3,165,1,1,0,410,NaN,3,0,1,0.65,NaN,1,2,NaN,0,1,0.65,NaN,0,0,0,1,0,0,1,1,1,1,1,1,1,1,1,1,1,1,1,1,0.65,0.65,0.808333333333333,0.7375,NaN,1,NaN,0.2,NaN,0.8,0.686458333333333,5,5
1041,104,1,3,166,1,1,1,618,618,2,1,0,NaN,NaN,NaN,2,-0.222150921497407,0,1,NaN,NaN,1,0,0,0,1,0,0,1,1,1,0,1,1,1,1,1,1,1,1,1,0.65,0.653571428571429,0.808333333333333,0.755208333333333,NaN,0.8,NaN,0.4,NaN,0.6,0.686458333333333,5,5
1041,104,1,3,167,1,1,1,638,638,3,1,0,NaN,NaN,NaN,1,-0.0792060675198037,0,1,NaN,NaN,1,1,0,0,0,1,0,0,1,1,1,0,1,1,1,1,1,1,1,1,0.65,0.657142857142857,0.808333333333333,0.772916666666667,NaN,0.8,NaN,0.4,NaN,0.6,0.686458333333333,5,5
1041,104,1,3,168,0,1,1,373,373,4,1,0,NaN,NaN,NaN,1,-1.97322538272305,0,0,NaN,NaN,1,1,1,0,0,0,1,0,0,1,1,1,0,1,1,1,1,1,1,1,0.65,0.660714285714286,0.808333333333333,0.790625,NaN,0.8,NaN,0.6,NaN,0.6,0.686458333333333,5,5
1041,104,1,3,169,0,1,0,502,NaN,1,1,1,0.808333333333333,NaN,2,2,NaN,0,0,NaN,0.808333333333333,0,1,1,1,0,0,0,1,0,0,1,1,1,0,1,1,1,1,1,1,0.675,0.664285714285714,0.808333333333333,0.808333333333333,NaN,0.8,NaN,0.6,NaN,0.6,0.686458333333333,5,5
1041,104,1,3,170,1,1,1,469,469,4,1,1,NaN,NaN,NaN,2,-1.28709008363055,0,1,NaN,NaN,0,0,1,1,1,0,0,0,1,0,1,1,1,1,0,1,1,1,1,1,0.675,0.667857142857143,0.808333333333333,0.823333333333333,NaN,0.8,NaN,0.6,NaN,0.6,0.686458333333333,5,5
1041,104,1,3,171,0,1,1,604,604,2,1,0,NaN,NaN,NaN,1,-0.322212319281729,0,0,NaN,NaN,1,0,0,1,1,1,0,0,0,1,1,1,1,1,1,0,1,1,1,1,0.675,0.671428571428571,0.808333333333333,0.838333333333333,NaN,1,NaN,0.6,NaN,0.8,0.686458333333333,5,5
1041,104,1,3,172,0,1,1,694,694,1,1,0,0.675,NaN,1,1,0.321039523617485,0,0,0.675,NaN,0,1,0,0,1,1,1,0,0,0,1,1,1,1,1,1,0,1,1,1,0.675,0.675,0.883333333333333,0.853333333333333,NaN,1,NaN,0.4,NaN,0.8,0.680729166666667,5,5
1041,104,1,3,173,0,1,1,541,541,3,1,2,NaN,NaN,NaN,2,-0.772488609311179,0,0,NaN,NaN,0,0,1,0,0,1,1,1,0,0,1,1,1,1,1,1,1,0,1,1,0.675,0.651666666666667,0.883333333333333,0.868333333333333,NaN,1,NaN,0.2,NaN,0.8,0.680729166666667,5,5
1041,104,1,3,174,0,1,0,473,NaN,1,1,1,0.883333333333333,NaN,2,2,NaN,0,0,NaN,0.883333333333333,0,0,0,1,0,0,1,1,1,0,1,1,1,1,1,1,1,1,0,1,0.675,0.628333333333333,0.883333333333333,0.883333333333333,NaN,1,NaN,0.2,NaN,0.8,0.680729166666667,5,5
1041,104,1,3,175,0,1,1,639,639,3,1,0,NaN,NaN,NaN,2,-0.0720588248209235,0,0,NaN,NaN,0,0,0,0,1,0,0,1,1,1,1,1,1,1,1,1,1,1,1,0,0.558333333333333,0.605,0.883333333333333,0.841666666666667,NaN,1,NaN,0.2,NaN,0.8,0.680729166666667,5,5
1041,104,1,3,176,1,1,0,474,NaN,2,0,0,NaN,NaN,NaN,1,NaN,0,1,NaN,NaN,0,0,0,0,0,1,0,0,1,1,1,1,1,1,1,1,1,1,1,1,0.558333333333333,0.581666666666667,0.883333333333333,0.8,NaN,1,NaN,0,NaN,0.8,0.680729166666667,5,5
1041,104,1,3,177,1,1,1,485,485,4,1,0,0.558333333333333,NaN,1,2,-1.17273420044847,0,1,0.558333333333333,NaN,1,0,0,0,0,0,1,0,0,1,0,1,1,1,1,1,1,1,1,1,0.558333333333333,0.558333333333333,0.675,0.758333333333333,NaN,0.8,NaN,0.2,NaN,0.6,0.61953125,5,5
1041,104,1,3,178,0,1,1,505,505,2,1,1,NaN,NaN,NaN,2,-1.02978934647087,0,0,NaN,NaN,1,1,0,0,0,0,0,1,0,0,1,0,1,1,1,1,1,1,1,1,0.558333333333333,0.614583333333333,0.675,0.716666666666667,NaN,0.8,NaN,0.4,NaN,0.6,0.61953125,5,5
1041,104,1,3,179,0,1,0,587,NaN,2,1,0,0.675,NaN,2,1,NaN,0,0,NaN,0.675,0,1,1,0,0,0,0,0,1,0,1,1,0,1,1,1,1,1,1,1,0.783333333333333,0.670833333333333,0.675,0.675,NaN,0.8,NaN,0.4,NaN,0.6,0.61953125,5,5
1041,104,1,3,180,0,1,1,500,500,4,1,1,NaN,NaN,NaN,2,-1.06552555996527,0,0,NaN,NaN,0,0,1,1,0,0,0,0,0,1,1,1,1,0,1,1,1,1,1,1,0.783333333333333,0.727083333333333,0.675,0.715,NaN,0.8,NaN,0.4,NaN,0.6,0.61953125,5,5
1041,104,1,3,181,0,1,1,468,468,1,1,0,0.783333333333333,NaN,1,2,-1.29423732632943,0,0,0.783333333333333,NaN,0,0,0,1,1,0,0,0,0,0,1,1,1,1,0,1,1,1,1,1,0.783333333333333,0.783333333333333,0.675,0.755,NaN,0.8,NaN,0.4,NaN,0.6,0.701432291666667,5,5
1041,104,1,3,182,1,1,1,401,401,4,1,1,NaN,NaN,NaN,1,-1.7731025871544,0,1,NaN,NaN,0,0,0,0,1,1,0,0,0,0,1,1,1,1,1,0,1,1,1,1,0.783333333333333,0.776190476190476,0.875,0.795,NaN,1,NaN,0.2,NaN,0.8,0.701432291666667,5,5
1041,104,1,3,183,0,1,1,512,512,1,1,1,NaN,NaN,NaN,1,-0.979758647578704,0,0,NaN,NaN,1,0,0,0,0,1,1,0,0,0,1,1,1,1,1,1,0,1,1,1,0.783333333333333,0.769047619047619,0.875,0.835,NaN,1,NaN,0.2,NaN,0.8,0.701432291666667,5,5
1041,104,1,3,184,1,1,1,574,574,2,1,0,0.875,NaN,2,2,-0.536629600248134,0,1,NaN,0.875,0,1,0,0,0,0,1,1,0,0,1,1,1,1,1,1,1,0,1,1,0.783333333333333,0.761904761904762,0.875,0.875,NaN,1,NaN,0.2,NaN,0.8,0.701432291666667,5,5
1041,104,1,3,185,1,1,1,414,414,4,1,1,NaN,NaN,NaN,2,-1.68018843206896,0,1,NaN,NaN,1,0,1,0,0,0,0,1,1,0,1,1,1,1,1,1,1,1,0,1,0.733333333333333,0.754761904761905,0.875,0.863541666666667,NaN,1,NaN,0.4,491,1,0.701432291666667,5,5
1041,104,1,3,186,1,1,1,501,501,2,1,1,NaN,NaN,NaN,2,-1.05837831726639,0,1,NaN,NaN,1,1,0,1,0,0,0,0,1,1,1,1,1,1,1,1,1,1,1,0,0.733333333333333,0.747619047619048,0.875,0.852083333333333,NaN,1,NaN,0.6,473.8,1,0.701432291666667,5,5
1041,104,1,3,187,1,1,1,546,546,4,1,0,NaN,NaN,NaN,1,-0.736752395816779,0,1,NaN,NaN,1,1,1,0,1,0,0,0,0,1,1,1,1,1,1,1,1,1,1,1,0.733333333333333,0.74047619047619,0.875,0.840625,NaN,1,NaN,0.8,480.4,1,0.701432291666667,5,5
1041,104,1,3,188,0,1,0,634,NaN,1,1,1,0.733333333333333,NaN,1,1,NaN,0,0,0.733333333333333,NaN,1,1,1,1,0,1,0,0,0,0,1,1,1,1,1,1,1,1,1,1,0.733333333333333,0.733333333333333,0.783333333333333,0.829166666666667,NaN,1,NaN,0.8,NaN,1,0.7173828125,5,5
1041,104,1,3,189,1,1,0,606,NaN,4,0,2,NaN,NaN,NaN,2,NaN,0,1,NaN,NaN,0,1,1,1,1,0,1,0,0,0,1,1,1,1,1,1,1,1,1,1,0.733333333333333,0.714285714285714,0.783333333333333,0.817708333333333,NaN,1,NaN,0.8,NaN,0.8,0.7173828125,5,5
1041,104,1,3,190,1,1,1,453,453,1,1,1,NaN,NaN,NaN,2,-1.40144596681263,0,1,NaN,NaN,1,0,1,1,1,1,0,1,0,0,0,1,1,1,1,1,1,1,1,1,0.733333333333333,0.695238095238095,0.783333333333333,0.80625,NaN,0.8,NaN,0.8,NaN,0.6,0.7173828125,5,5
1041,104,1,3,191,1,1,1,800,800,3,0,2,NaN,NaN,NaN,1,1.07864724969878,0,1,NaN,NaN,1,1,0,1,1,1,1,0,1,0,1,0,1,1,1,1,1,1,1,1,0.733333333333333,0.676190476190476,0.783333333333333,0.794791666666667,NaN,0.8,NaN,0.8,NaN,0.6,0.7173828125,5,5
1041,104,1,3,192,1,1,1,614,614,1,1,0,0.783333333333333,NaN,2,2,-0.250739892292928,0,1,NaN,0.783333333333333,1,1,1,0,1,1,1,1,0,1,0,1,0,1,1,1,1,1,1,1,0.6,0.657142857142857,0.783333333333333,0.783333333333333,NaN,0.6,NaN,0.8,NaN,0.6,0.7173828125,5,5
1041,104,1,3,193,1,1,1,620,620,2,1,0,NaN,NaN,NaN,2,-0.207856436099647,0,1,NaN,NaN,1,1,1,1,0,1,1,1,1,0,1,0,1,0,1,1,1,1,1,1,0.6,0.638095238095238,0.783333333333333,0.755952380952381,NaN,0.6,NaN,0.8,NaN,0.6,0.7173828125,5,5
1041,104,1,3,194,0,1,1,514,514,3,1,2,NaN,NaN,NaN,2,-0.965464162180944,0,0,NaN,NaN,1,1,1,1,1,0,1,1,1,1,1,1,0,1,0,1,1,1,1,1,0.6,0.619047619047619,0.783333333333333,0.728571428571429,NaN,0.6,NaN,1,NaN,0.8,0.7173828125,5,5
1041,104,1,3,195,0,1,1,538,538,4,1,0,0.6,NaN,1,2,-0.79393033740782,0,0,0.6,NaN,0,1,1,1,1,1,0,1,1,1,1,1,1,0,1,0,1,1,1,1,0.6,0.6,0.783333333333333,0.701190476190476,NaN,0.8,NaN,0.8,600.2,1,0.65869140625,5,5
1041,104,1,3,196,1,1,1,562,562,2,1,2,NaN,NaN,NaN,1,-0.622396512634696,0,1,NaN,NaN,0,0,1,1,1,1,1,0,1,1,1,1,1,1,0,1,0,1,1,1,0.6,0.598611111111111,0.591666666666667,0.673809523809524,NaN,0.8,NaN,0.6,617.2,1,0.65869140625,5,5
1041,104,1,3,197,0,1,1,524,524,4,1,1,NaN,NaN,NaN,1,-0.893991735192142,0,0,NaN,NaN,1,0,0,1,1,1,1,1,0,1,1,1,1,1,1,0,1,0,1,1,0.6,0.597222222222222,0.591666666666667,0.646428571428571,NaN,1,NaN,0.6,569.6,1,0.65869140625,5,5
1041,104,1,3,198,0,1,NaN,NaN,NaN,NaN,0,2,NaN,NaN,NaN,2,NaN,1,0,NaN,NaN,0,1,0,0,1,1,1,1,1,0,1,1,1,1,1,1,0,1,0,1,0.591666666666667,0.595833333333333,0.591666666666667,0.619047619047619,NaN,1,NaN,0.4,NaN,NaN,0.65869140625,5,5
1041,104,1,3,199,0,1,1,725,725,1,1,0,0.591666666666667,NaN,2,2,0.54260404728277,0,0,NaN,0.591666666666667,0,0,1,0,0,1,1,1,1,1,0,1,1,1,1,1,1,0,1,0,0.591666666666667,0.594444444444444,0.591666666666667,0.591666666666667,NaN,0.8,NaN,0.2,NaN,NaN,0.65869140625,5,5
1041,104,1,3,200,1,1,NaN,NaN,NaN,NaN,0,0,NaN,NaN,NaN,1,NaN,1,1,NaN,NaN,0,0,0,1,0,0,1,1,1,1,1,0,1,1,1,1,1,1,0,1,0.591666666666667,0.593055555555556,0.591666666666667,0.594444444444444,NaN,0.8,NaN,0.2,NaN,NaN,0.65869140625,5,5
1041,104,1,3,201,0,1,1,580,580,4,1,1,0.591666666666667,NaN,1,1,-0.493746144054853,0,0,0.591666666666667,NaN,1,0,0,0,1,0,0,1,1,1,0,1,0,1,1,1,1,1,1,0,0.591666666666667,0.591666666666667,0.591666666666667,0.597222222222222,NaN,0.6,NaN,0.4,NaN,NaN,0.625179036458333,5,5
1041,104,1,3,202,1,1,1,417,417,1,1,0,NaN,NaN,NaN,1,-1.65874670397232,0,1,NaN,NaN,0,1,0,0,0,1,0,0,1,1,1,0,1,0,1,1,1,1,1,1,0.591666666666667,0.615277777777778,0.608333333333333,0.6,NaN,0.6,NaN,0.2,NaN,NaN,0.625179036458333,5,5
1041,104,1,3,203,1,1,1,427,427,3,1,1,NaN,NaN,NaN,1,-1.58727427698352,0,1,NaN,NaN,1,0,1,0,0,0,1,0,0,1,1,1,0,1,0,1,1,1,1,1,0.591666666666667,0.638888888888889,0.608333333333333,0.602777777777778,NaN,0.6,NaN,0.4,NaN,NaN,0.625179036458333,5,5
1041,104,1,3,204,0,1,1,350,350,4,1,1,NaN,NaN,NaN,1,-2.13761196479729,0,0,NaN,NaN,1,1,0,1,0,0,0,1,0,0,1,1,1,0,1,0,1,1,1,1,0.733333333333333,0.6625,0.608333333333333,0.605555555555556,NaN,0.8,NaN,0.6,NaN,NaN,0.625179036458333,5,5
1041,104,1,3,205,1,1,0,592,NaN,2,0,0,0.608333333333333,NaN,2,1,NaN,0,1,NaN,0.608333333333333,0,1,1,0,1,0,0,0,1,0,1,1,1,1,0,1,0,1,1,1,0.733333333333333,0.686111111111111,0.608333333333333,0.608333333333333,NaN,0.8,NaN,0.6,NaN,NaN,0.625179036458333,5,5
1041,104,1,3,206,1,1,1,505,505,2,1,1,NaN,NaN,NaN,2,-1.02978934647087,0,1,NaN,NaN,1,0,1,1,0,1,0,0,0,1,0,1,1,1,1,0,1,0,1,1,0.733333333333333,0.709722222222222,0.608333333333333,0.6125,NaN,0.8,NaN,0.6,NaN,0.8,0.625179036458333,5,5
1041,104,1,3,207,0,1,1,411,411,4,1,0,0.733333333333333,NaN,1,1,-1.7016301601656,0,0,0.733333333333333,NaN,1,1,0,1,1,0,1,0,0,0,1,0,1,1,1,1,0,1,0,1,0.733333333333333,0.733333333333333,0.608333333333333,0.616666666666667,NaN,0.8,NaN,0.8,NaN,0.8,0.679256184895833,5,5
1041,104,1,3,208,0,1,1,578,578,3,1,2,NaN,NaN,NaN,1,-0.508040629452613,0,0,NaN,NaN,0,1,1,0,1,1,0,1,0,0,1,1,0,1,1,1,1,0,1,0,0.733333333333333,0.696428571428571,0.633333333333333,0.620833333333333,NaN,0.8,NaN,0.6,NaN,0.8,0.679256184895833,5,5
1041,104,1,3,209,0,1,1,465,465,2,0,1,NaN,NaN,NaN,2,-1.31567905442607,0,0,NaN,NaN,0,0,1,1,0,1,1,0,1,0,1,1,1,0,1,1,1,1,0,1,0.733333333333333,0.65952380952381,0.633333333333333,0.625,NaN,0.8,NaN,0.4,NaN,0.8,0.679256184895833,5,5
1041,104,1,3,210,1,1,1,466,466,3,1,1,NaN,NaN,NaN,1,-1.30853181172719,0,1,NaN,NaN,0,0,0,1,1,0,1,1,0,1,0,1,1,1,0,1,1,1,1,0,0.733333333333333,0.622619047619048,0.633333333333333,0.629166666666667,NaN,0.6,NaN,0.4,NaN,0.8,0.679256184895833,5,5
1041,104,1,3,211,1,1,1,494,494,1,1,1,0.633333333333333,NaN,2,1,-1.10840901615855,0,1,NaN,0.633333333333333,1,0,0,0,1,1,0,1,1,0,1,0,1,1,1,0,1,1,1,1,0.475,0.585714285714286,0.633333333333333,0.633333333333333,NaN,0.8,NaN,0.4,485,1,0.679256184895833,5,5
1041,104,1,3,212,0,1,1,476,476,2,0,2,NaN,NaN,NaN,2,-1.23705938473839,0,0,NaN,NaN,1,1,0,0,0,1,1,0,1,1,1,1,0,1,1,1,0,1,1,1,0.475,0.548809523809524,0.633333333333333,0.646666666666667,NaN,0.8,NaN,0.4,482.8,1,0.679256184895833,5,5
1041,104,1,3,213,0,1,1,464,464,4,1,0,NaN,NaN,NaN,1,-1.32282629712495,0,0,NaN,NaN,0,1,1,0,0,0,1,1,0,1,0,1,1,0,1,1,1,0,1,1,0.475,0.511904761904762,0.633333333333333,0.66,NaN,0.6,NaN,0.4,495.8,1,0.679256184895833,5,5
1041,104,1,3,214,0,1,0,645,NaN,1,1,0,0.475,NaN,1,1,NaN,0,0,0.475,NaN,0,0,1,1,0,0,0,1,1,0,1,0,1,1,0,1,1,1,0,1,0.475,0.475,0.7,0.673333333333333,NaN,0.6,NaN,0.4,NaN,1,0.577128092447917,5,5
1041,104,1,3,215,0,1,1,557,557,2,1,0,NaN,NaN,NaN,1,-0.658132726129097,0,0,NaN,NaN,0,0,0,1,1,0,0,0,1,1,1,1,0,1,1,0,1,1,1,0,0.475,0.508333333333333,0.7,0.686666666666667,NaN,0.8,NaN,0.4,NaN,0.8,0.577128092447917,5,5
1041,104,1,3,216,0,1,1,475,475,4,1,2,0.7,NaN,2,2,-1.24420662743727,0,0,NaN,0.7,0,0,0,0,1,1,0,0,0,1,1,1,1,0,1,1,0,1,1,1,0.608333333333333,0.541666666666667,0.7,0.7,NaN,0.8,NaN,0.2,NaN,0.8,0.577128092447917,5,5
1041,104,1,4,217,0,1,1,551,551,3,1,1,NaN,NaN,NaN,2,-0.701016182322378,0,0,NaN,NaN,0,0,0,0,0,1,1,0,0,0,1,1,1,1,0,1,1,0,1,1,0.608333333333333,0.575,0.7,0.708333333333333,NaN,0.8,NaN,0,NaN,0.8,NaN,5,5
1041,104,1,4,218,0,1,1,493,493,2,1,1,0.608333333333333,NaN,1,2,-1.11555625885743,0,0,0.608333333333333,NaN,0,0,0,0,0,0,1,1,0,0,1,1,1,1,1,0,1,1,0,1,0.608333333333333,0.608333333333333,0.7,0.716666666666667,NaN,1,NaN,0,NaN,0.8,0.608333333333333,5,5
1041,104,1,4,219,1,1,1,425,425,4,1,2,NaN,NaN,NaN,1,-1.60156876238128,0,1,NaN,NaN,0,0,0,0,0,0,0,1,1,0,1,1,1,1,1,1,0,1,1,0,0.608333333333333,0.648611111111111,0.75,0.725,NaN,1,NaN,0,NaN,0.8,0.608333333333333,5,5
1041,104,1,4,220,0,1,1,536,536,1,1,1,NaN,NaN,NaN,2,-0.80822482280558,0,0,NaN,NaN,1,0,0,0,0,0,0,0,1,1,1,1,1,1,1,1,1,0,1,1,0.608333333333333,0.688888888888889,0.75,0.733333333333333,NaN,1,NaN,0.2,500.2,1,0.608333333333333,5,5
1041,104,1,4,221,1,1,1,432,432,4,1,0,NaN,NaN,NaN,2,-1.55153806348912,0,1,NaN,NaN,0,1,0,0,0,0,0,0,0,1,1,1,1,1,1,1,1,1,0,1,0.85,0.729166666666667,0.75,0.741666666666667,NaN,1,NaN,0.2,496,1,0.608333333333333,5,5
1041,104,1,4,222,0,1,0,684,NaN,1,0,0,0.75,NaN,2,2,NaN,0,0,NaN,0.75,1,0,1,0,0,0,0,0,0,0,1,1,1,1,1,1,1,1,1,0,0.85,0.769444444444444,0.75,0.75,NaN,1,NaN,0.4,NaN,1,0.608333333333333,5,5
1041,104,1,4,223,1,1,0,555,NaN,3,0,0,NaN,NaN,NaN,1,NaN,0,1,NaN,NaN,0,1,0,1,0,0,0,0,0,0,0,1,1,1,1,1,1,1,1,1,0.85,0.809722222222222,0.75,0.728333333333333,NaN,0.8,NaN,0.4,NaN,0.8,0.608333333333333,5,5
1041,104,1,4,224,1,1,1,567,567,3,1,0,0.85,NaN,1,2,-0.586660299140295,0,1,0.85,NaN,1,0,1,0,1,0,0,0,0,0,0,0,1,1,1,1,1,1,1,1,0.85,0.85,0.75,0.706666666666667,NaN,0.6,NaN,0.6,NaN,0.6,0.729166666666667,5,5
1041,104,1,4,225,0,1,1,518,518,2,1,2,NaN,NaN,NaN,2,-0.936875191385423,0,0,NaN,NaN,1,1,0,1,0,1,0,0,0,0,1,0,0,1,1,1,1,1,1,1,0.85,0.818055555555556,0.641666666666667,0.685,NaN,0.6,NaN,0.6,NaN,0.6,0.729166666666667,5,5
1041,104,1,4,226,1,1,1,547,547,3,1,0,NaN,NaN,NaN,2,-0.729605153117899,0,1,NaN,NaN,0,1,1,0,1,0,1,0,0,0,1,1,0,0,1,1,1,1,1,1,0.85,0.786111111111111,0.641666666666667,0.663333333333333,NaN,0.6,NaN,0.6,NaN,0.6,0.729166666666667,5,5
1041,104,1,4,227,0,1,1,428,428,1,1,0,0.641666666666667,NaN,2,1,-1.58012703428464,0,0,NaN,0.641666666666667,1,0,1,1,0,1,0,1,0,0,1,1,1,0,0,1,1,1,1,1,0.658333333333333,0.754166666666667,0.641666666666667,0.641666666666667,NaN,0.6,NaN,0.6,NaN,0.6,0.729166666666667,5,5
1041,104,1,4,228,1,1,1,439,439,4,1,2,NaN,NaN,NaN,1,-1.50150736459696,0,1,NaN,NaN,0,1,0,1,1,0,1,0,1,0,1,1,1,1,0,0,1,1,1,1,0.658333333333333,0.722222222222222,0.641666666666667,0.656944444444445,NaN,0.8,NaN,0.6,NaN,0.8,0.729166666666667,5,5
1041,104,1,4,229,1,1,1,490,490,3,1,1,NaN,NaN,NaN,1,-1.13699798695407,0,1,NaN,NaN,1,0,1,0,1,1,0,1,0,1,1,1,1,1,1,0,0,1,1,1,0.658333333333333,0.690277777777778,0.641666666666667,0.672222222222222,NaN,1,NaN,0.6,499.8,1,0.729166666666667,5,5
1041,104,1,4,230,0,1,1,619,619,1,1,2,0.658333333333333,NaN,1,1,-0.215003678798527,0,0,0.658333333333333,NaN,1,1,0,1,0,1,1,0,1,0,1,1,1,1,1,1,0,0,1,1,0.658333333333333,0.658333333333333,0.733333333333333,0.6875,NaN,1,NaN,0.6,484.4,1,0.69375,5,5
1041,104,1,4,231,0,1,1,596,596,3,1,1,NaN,NaN,NaN,1,-0.379390260872771,0,0,NaN,NaN,0,1,1,0,1,0,1,1,0,1,1,1,1,1,1,1,1,0,0,1,0.658333333333333,0.654761904761905,0.733333333333333,0.702777777777778,NaN,1,NaN,0.6,504.6,1,0.69375,5,5
1041,104,1,4,232,1,1,1,388,388,4,1,1,NaN,NaN,NaN,2,-1.86601674223984,0,1,NaN,NaN,0,0,1,1,0,1,0,1,1,0,1,1,1,1,1,1,1,1,0,0,0.658333333333333,0.651190476190476,0.733333333333333,0.718055555555555,NaN,1,NaN,0.4,514.4,1,0.69375,5,5
1041,104,1,4,233,0,1,1,510,510,2,1,0,0.733333333333333,NaN,2,1,-0.994053132976465,0,0,NaN,0.733333333333333,1,0,0,1,1,0,1,0,1,1,1,1,1,1,1,1,1,1,1,0,0.658333333333333,0.647619047619048,0.733333333333333,0.733333333333333,NaN,1,NaN,0.6,506.4,1,0.69375,5,5
1041,104,1,4,234,1,1,1,420,420,3,1,2,NaN,NaN,NaN,1,-1.63730497587568,0,1,NaN,NaN,0,1,0,0,1,1,0,1,0,1,1,1,1,1,1,1,1,1,1,1,0.633333333333333,0.644047619047619,0.733333333333333,0.735416666666667,NaN,1,NaN,0.4,520.6,1,0.69375,5,5
1041,104,1,4,235,0,1,1,618,618,2,1,0,NaN,NaN,NaN,2,-0.222150921497407,0,0,NaN,NaN,1,0,1,0,0,1,1,0,1,0,1,1,1,1,1,1,1,1,1,1,0.633333333333333,0.64047619047619,0.733333333333333,0.7375,NaN,1,NaN,0.4,506.6,1,0.69375,5,5
1041,104,1,4,236,0,1,1,523,523,1,0,1,NaN,NaN,NaN,1,-0.901138977891022,0,0,NaN,NaN,0,1,0,1,0,0,1,1,0,1,1,1,1,1,1,1,1,1,1,1,0.633333333333333,0.636904761904762,0.733333333333333,0.739583333333333,NaN,1,NaN,0.4,506.4,1,0.69375,5,5
1041,104,1,4,237,0,1,1,708,708,3,1,1,0.633333333333333,NaN,1,1,0.421100921401808,0,0,0.633333333333333,NaN,0,0,1,0,1,0,0,1,1,0,0,1,1,1,1,1,1,1,1,1,0.633333333333333,0.633333333333333,0.75,0.741666666666667,NaN,0.8,NaN,0.4,491.8,1,0.663541666666667,5,5
1041,104,1,4,238,0,1,1,491,491,2,1,2,NaN,NaN,NaN,1,-1.12985074425519,0,0,NaN,NaN,0,0,0,1,0,1,0,0,1,1,1,0,1,1,1,1,1,1,1,1,0.633333333333333,0.642857142857143,0.75,0.74375,NaN,0.8,NaN,0.2,555.8,1,0.663541666666667,5,5
1041,104,1,4,239,0,1,1,510,510,4,1,0,NaN,NaN,NaN,1,-0.994053132976465,0,0,NaN,NaN,0,0,0,0,1,0,1,0,0,1,1,1,0,1,1,1,1,1,1,1,0.633333333333333,0.652380952380952,0.75,0.745833333333333,NaN,0.8,NaN,0.2,552,1,0.663541666666667,5,5
1041,104,1,4,240,0,1,1,441,441,1,1,0,NaN,NaN,NaN,2,-1.4872128791992,0,0,NaN,NaN,0,0,0,0,0,1,0,1,0,0,1,1,1,0,1,1,1,1,1,1,0.633333333333333,0.661904761904762,0.75,0.747916666666667,NaN,0.8,NaN,0,570,1,0.663541666666667,5,5
1041,104,1,4,241,0,1,1,447,447,2,1,0,0.75,NaN,2,2,-1.44432942300591,0,0,NaN,0.75,0,0,0,0,0,0,1,0,1,0,1,1,1,1,0,1,1,1,1,1,0.7,0.671428571428571,0.75,0.75,NaN,0.8,NaN,0,534.6,1,0.663541666666667,5,5
1041,104,1,4,242,1,1,1,414,414,1,1,2,NaN,NaN,NaN,1,-1.68018843206896,0,1,NaN,NaN,0,0,0,0,0,0,0,1,0,1,1,1,1,1,1,0,1,1,1,1,0.7,0.680952380952381,0.75,0.758333333333333,NaN,1,NaN,0,519.4,1,0.663541666666667,5,5
1041,104,1,4,243,0,1,0,464,NaN,3,1,1,NaN,NaN,NaN,2,NaN,0,0,NaN,NaN,1,0,0,0,0,0,0,0,1,0,1,1,1,1,1,1,0,1,1,1,0.7,0.69047619047619,0.75,0.766666666666667,NaN,1,NaN,0.2,NaN,1,0.663541666666667,5,5
1041,104,1,4,244,0,1,0,541,NaN,3,1,0,0.7,NaN,1,1,NaN,0,0,0.7,NaN,0,1,0,0,0,0,0,0,0,1,1,1,1,1,1,1,1,0,1,1,0.7,0.7,0.791666666666667,0.775,NaN,1,NaN,0.2,NaN,0.8,0.681770833333333,5,5
1041,104,1,4,245,1,1,1,586,586,1,1,0,NaN,NaN,NaN,2,-0.450862687861572,0,1,NaN,NaN,0,0,1,0,0,0,0,0,0,0,1,1,1,1,1,1,1,1,0,1,0.7,0.675,0.791666666666667,0.783333333333333,NaN,1,NaN,0.2,NaN,0.6,0.681770833333333,5,5
1041,104,1,4,246,0,1,1,673,673,3,1,2,0.791666666666667,NaN,2,2,0.170947426941002,0,0,NaN,0.791666666666667,1,0,0,1,0,0,0,0,0,0,1,1,1,1,1,1,1,1,1,0,0.7,0.65,0.791666666666667,0.791666666666667,NaN,1,NaN,0.4,NaN,0.6,0.681770833333333,5,5
1041,104,1,4,247,0,1,1,385,385,1,0,0,NaN,NaN,NaN,1,-1.88745847033648,0,0,NaN,NaN,0,1,0,0,1,0,0,0,0,0,1,1,1,1,1,1,1,1,1,1,0.575,0.625,0.791666666666667,0.793333333333333,NaN,1,NaN,0.4,NaN,0.6,0.681770833333333,5,5
1041,104,1,4,248,0,1,1,519,519,2,1,2,NaN,NaN,NaN,1,-0.929727948686543,0,0,NaN,NaN,0,0,1,0,0,1,0,0,0,0,0,1,1,1,1,1,1,1,1,1,0.575,0.6,0.791666666666667,0.795,NaN,0.8,NaN,0.2,NaN,0.6,0.681770833333333,5,5
1041,104,1,4,249,0,1,1,767,767,1,1,0,0.575,NaN,1,2,0.842788240635737,0,0,0.575,NaN,0,0,0,1,0,0,1,0,0,0,1,0,1,1,1,1,1,1,1,1,0.575,0.575,0.8,0.796666666666667,NaN,0.8,NaN,0.2,NaN,0.8,0.628385416666667,5,5
1041,104,1,4,250,0,1,1,606,606,2,1,2,NaN,NaN,NaN,1,-0.307917833883969,0,0,NaN,NaN,0,0,0,0,1,0,0,1,0,0,1,1,0,1,1,1,1,1,1,1,0.575,0.572916666666667,0.8,0.798333333333333,NaN,0.8,NaN,0.2,586,1,0.628385416666667,5,5
1041,104,1,4,251,1,1,1,464,464,3,1,1,0.8,NaN,2,2,-1.32282629712495,0,1,NaN,0.8,0,0,0,0,0,1,0,0,1,0,1,1,1,0,1,1,1,1,1,1,0.566666666666667,0.570833333333333,0.8,0.8,NaN,0.8,NaN,0,590,1,0.628385416666667,5,5
1041,104,1,4,252,0,1,1,369,369,2,1,1,NaN,NaN,NaN,1,-2.00181435351857,0,0,NaN,NaN,1,0,0,0,0,0,1,0,0,1,1,1,1,1,0,1,1,1,1,1,0.566666666666667,0.56875,0.8,0.786666666666667,NaN,0.8,NaN,0.2,548.2,1,0.628385416666667,5,5
1041,104,1,4,253,0,1,1,450,450,1,1,0,0.566666666666667,NaN,1,2,-1.42288769490927,0,0,0.566666666666667,NaN,0,1,0,0,0,0,0,1,0,0,1,1,1,1,1,0,1,1,1,1,0.566666666666667,0.566666666666667,0.8,0.773333333333333,NaN,1,NaN,0.2,545,1,0.597526041666667,5,5
1041,104,1,4,254,0,1,1,444,444,2,1,0,NaN,NaN,NaN,2,-1.46577115110256,0,0,NaN,NaN,0,0,1,0,0,0,0,0,1,0,1,1,1,1,1,1,0,1,1,1,0.566666666666667,0.582142857142857,0.733333333333333,0.76,NaN,1,NaN,0.2,531.2,1,0.597526041666667,5,5
1041,104,1,4,255,1,1,1,451,451,4,1,0,NaN,NaN,NaN,2,-1.41574045221039,0,1,NaN,NaN,0,0,0,1,0,0,0,0,0,1,1,1,1,1,1,1,1,0,1,1,0.566666666666667,0.597619047619048,0.733333333333333,0.746666666666667,NaN,1,NaN,0.2,466.6,1,0.597526041666667,5,5
1041,104,1,4,256,0,1,1,567,567,2,1,0,0.733333333333333,NaN,2,1,-0.586660299140295,0,0,NaN,0.733333333333333,1,0,0,0,1,0,0,0,0,0,1,1,1,1,1,1,1,1,0,1,0.566666666666667,0.613095238095238,0.733333333333333,0.733333333333333,NaN,1,NaN,0.4,435.6,1,0.597526041666667,5,5
1041,104,1,4,257,1,1,1,487,487,4,1,2,NaN,NaN,NaN,1,-1.15843971505071,0,1,NaN,NaN,0,1,0,0,0,1,0,0,0,0,1,1,1,1,1,1,1,1,1,0,0.675,0.628571428571429,0.733333333333333,0.711458333333333,NaN,1,NaN,0.2,456.2,1,0.597526041666667,5,5
1041,104,1,4,258,1,1,0,475,NaN,2,0,0,NaN,NaN,NaN,1,NaN,0,1,NaN,NaN,1,0,1,0,0,0,1,0,0,0,1,1,1,1,1,1,1,1,1,1,0.675,0.644047619047619,0.733333333333333,0.689583333333333,NaN,1,NaN,0.4,NaN,1,0.597526041666667,5,5
1041,104,1,4,259,1,1,1,431,431,2,1,1,NaN,NaN,NaN,1,-1.558685306188,0,1,NaN,NaN,1,1,0,1,0,0,0,1,0,0,0,1,1,1,1,1,1,1,1,1,0.675,0.65952380952381,0.733333333333333,0.667708333333333,NaN,0.8,NaN,0.6,NaN,0.8,0.597526041666667,5,5
1041,104,1,4,260,1,1,1,471,471,4,1,1,0.675,NaN,1,1,-1.27279559823279,0,1,0.675,NaN,1,1,1,0,1,0,0,0,1,0,1,0,1,1,1,1,1,1,1,1,0.675,0.675,0.558333333333333,0.645833333333333,NaN,0.8,NaN,0.8,NaN,0.8,0.636263020833333,5,5
1041,104,1,4,261,1,1,1,599,599,2,1,1,NaN,NaN,NaN,1,-0.35794853277613,0,1,NaN,NaN,1,1,1,1,0,1,0,0,0,1,1,1,0,1,1,1,1,1,1,1,0.675,0.679761904761905,0.558333333333333,0.623958333333333,NaN,0.8,NaN,0.8,NaN,0.8,0.636263020833333,5,5
1041,104,1,4,262,0,1,1,478,478,3,1,1,NaN,NaN,NaN,2,-1.22276489934063,0,0,NaN,NaN,1,1,1,1,1,0,1,0,0,0,1,1,1,0,1,1,1,1,1,1,0.675,0.68452380952381,0.558333333333333,0.602083333333333,NaN,0.8,NaN,1,NaN,0.8,0.636263020833333,5,5
1041,104,1,4,263,1,1,1,465,465,2,1,2,NaN,NaN,NaN,1,-1.31567905442607,0,1,NaN,NaN,0,1,1,1,1,1,0,1,0,0,1,1,1,1,0,1,1,1,1,1,0.675,0.689285714285714,0.558333333333333,0.580208333333333,NaN,0.8,NaN,0.8,NaN,0.8,0.636263020833333,5,5
1041,104,1,4,264,1,1,0,477,NaN,4,0,1,0.558333333333333,NaN,2,2,NaN,0,1,NaN,0.558333333333333,1,0,1,1,1,1,1,0,1,0,1,1,1,1,1,0,1,1,1,1,0.708333333333333,0.694047619047619,0.558333333333333,0.558333333333333,NaN,1,NaN,0.8,NaN,1,0.636263020833333,5,5
1041,104,1,4,265,0,1,1,477,477,2,1,0,NaN,NaN,NaN,1,-1.22991214203951,0,0,NaN,NaN,1,1,0,1,1,1,1,1,0,1,0,1,1,1,1,1,0,1,1,1,0.708333333333333,0.698809523809524,0.558333333333333,0.563095238095238,NaN,0.8,NaN,0.8,NaN,0.8,0.636263020833333,5,5
1041,104,1,4,266,1,1,1,612,612,1,1,2,NaN,NaN,NaN,2,-0.265034377690688,0,1,NaN,NaN,0,1,1,0,1,1,1,1,1,0,1,0,1,1,1,1,1,0,1,1,0.708333333333333,0.703571428571429,0.558333333333333,0.567857142857143,NaN,0.8,NaN,0.6,NaN,0.8,0.636263020833333,5,5
1041,104,1,4,267,1,1,1,535,535,4,1,0,0.708333333333333,NaN,1,1,-0.815372065504461,0,1,0.708333333333333,NaN,1,0,1,1,0,1,1,1,1,1,1,1,0,1,1,1,1,1,0,1,0.708333333333333,0.708333333333333,0.558333333333333,0.572619047619048,NaN,0.8,NaN,0.6,NaN,0.8,0.672298177083333,5,5
1041,104,1,4,268,1,1,0,445,NaN,2,0,1,NaN,NaN,NaN,1,NaN,0,1,NaN,NaN,1,1,0,1,1,0,1,1,1,1,1,1,1,0,1,1,1,1,1,0,0.708333333333333,0.690277777777778,0.591666666666667,0.577380952380952,NaN,0.8,NaN,0.8,NaN,0.8,0.672298177083333,5,5
1041,104,1,4,269,0,1,1,444,444,4,1,2,NaN,NaN,NaN,2,-1.46577115110256,0,0,NaN,NaN,1,1,1,0,1,1,0,1,1,1,0,1,1,1,0,1,1,1,1,1,0.708333333333333,0.672222222222222,0.591666666666667,0.582142857142857,NaN,0.6,NaN,0.8,NaN,0.6,0.672298177083333,5,5
1041,104,1,4,270,1,1,0,803,NaN,3,0,0,NaN,NaN,NaN,1,NaN,0,1,NaN,NaN,0,1,1,1,0,1,1,0,1,1,1,0,1,1,1,0,1,1,1,1,0.6,0.654166666666667,0.591666666666667,0.586904761904762,NaN,0.8,NaN,0.6,NaN,0.8,0.672298177083333,5,5
1041,104,1,4,271,1,1,1,530,530,2,1,2,0.591666666666667,NaN,2,1,-0.851108278998861,0,1,NaN,0.591666666666667,1,0,1,1,1,0,1,1,0,1,0,1,0,1,1,1,0,1,1,1,0.6,0.636111111111111,0.591666666666667,0.591666666666667,NaN,0.6,NaN,0.8,NaN,0.6,0.672298177083333,5,5
1041,104,1,4,272,0,1,0,703,NaN,1,1,0,NaN,NaN,NaN,1,NaN,0,0,NaN,NaN,1,1,0,1,1,1,0,1,1,0,1,0,1,0,1,1,1,0,1,1,0.6,0.618055555555556,0.591666666666667,0.619444444444444,NaN,0.6,NaN,0.8,NaN,0.6,0.672298177083333,5,5
1041,104,1,4,273,1,1,1,549,549,1,1,2,0.6,NaN,1,2,-0.715310667720138,0,1,0.6,NaN,0,1,1,0,1,1,1,0,1,1,1,1,0,1,0,1,1,1,0,1,0.6,0.6,0.591666666666667,0.647222222222222,NaN,0.6,NaN,0.6,NaN,0.4,0.636149088541667,5,5
1041,104,1,4,274,0,1,1,483,483,4,0,0,NaN,NaN,NaN,1,-1.18702868584623,0,0,NaN,NaN,1,0,1,1,0,1,1,1,0,1,1,1,1,0,1,0,1,1,1,0,0.6,0.625,0.758333333333333,0.675,NaN,0.8,NaN,0.6,NaN,0.6,0.636149088541667,5,5
1041,104,1,4,275,1,1,0,494,NaN,3,0,2,NaN,NaN,NaN,1,NaN,0,1,NaN,NaN,0,1,0,1,1,0,1,1,1,0,0,1,1,1,0,1,0,1,1,1,0.6,0.65,0.758333333333333,0.702777777777778,NaN,0.6,NaN,0.6,NaN,0.6,0.636149088541667,5,5
1041,104,1,4,276,0,1,1,618,618,3,1,1,NaN,NaN,NaN,1,-0.222150921497407,0,0,NaN,NaN,1,0,1,0,1,1,0,1,1,1,0,0,1,1,1,0,1,0,1,1,0.75,0.675,0.758333333333333,0.730555555555556,NaN,0.6,NaN,0.6,NaN,0.6,0.636149088541667,5,5
1041,104,1,4,277,0,1,1,471,471,1,1,2,0.758333333333333,NaN,2,1,-1.27279559823279,0,0,NaN,0.758333333333333,0,1,0,1,0,1,1,0,1,1,1,0,0,1,1,1,0,1,0,1,0.75,0.7,0.758333333333333,0.758333333333333,NaN,0.6,NaN,0.4,NaN,0.6,0.636149088541667,5,5
1041,104,1,4,278,1,1,1,722,722,3,0,1,NaN,NaN,NaN,1,0.52116231918613,0,1,NaN,NaN,0,0,1,0,1,0,1,1,0,1,1,1,0,0,1,1,1,0,1,0,0.75,0.725,0.758333333333333,0.733333333333333,NaN,0.6,NaN,0.4,NaN,0.8,0.636149088541667,5,5
1041,104,1,4,279,1,1,1,449,449,4,1,2,0.75,NaN,1,1,-1.43003493760815,0,1,0.75,NaN,1,0,0,1,0,1,0,1,1,0,0,1,1,0,0,1,1,1,0,1,0.75,0.75,0.758333333333333,0.708333333333333,NaN,0.4,NaN,0.4,NaN,0.8,0.693074544270833,5,5
1041,104,1,4,280,1,1,1,495,495,1,1,0,NaN,NaN,NaN,1,-1.10126177345967,0,1,NaN,NaN,1,1,0,0,1,0,1,0,1,1,1,0,1,1,0,0,1,1,1,0,0.75,0.738095238095238,0.608333333333333,0.683333333333333,NaN,0.6,NaN,0.6,NaN,0.8,0.693074544270833,5,5
1041,104,1,4,281,1,1,1,622,622,4,1,1,NaN,NaN,NaN,1,-0.193561950701886,0,1,NaN,NaN,1,1,1,0,0,1,0,1,0,1,1,1,0,1,1,0,0,1,1,1,0.75,0.726190476190476,0.608333333333333,0.658333333333333,NaN,0.8,NaN,0.6,551,1,0.693074544270833,5,5
1041,104,1,4,282,0,1,1,325,325,2,0,1,NaN,NaN,NaN,2,-2.31629303226929,0,0,NaN,NaN,1,1,1,1,0,0,1,0,1,0,1,1,1,0,1,1,0,0,1,1,0.75,0.714285714285714,0.608333333333333,0.633333333333333,NaN,0.8,NaN,0.8,551.8,1,0.693074544270833,5,5
1041,104,1,4,283,0,1,1,387,387,3,1,2,0.608333333333333,NaN,2,2,-1.87316398493872,0,0,NaN,0.608333333333333,0,1,1,1,1,0,0,1,0,1,0,1,1,1,0,1,1,0,0,1,0.666666666666667,0.702380952380952,0.608333333333333,0.608333333333333,NaN,0.6,NaN,0.8,522.6,1,0.693074544270833,5,5
1041,104,1,4,284,1,1,1,583,583,1,1,1,NaN,NaN,NaN,2,-0.472304415958213,0,1,NaN,NaN,0,0,1,1,1,1,0,0,1,0,1,0,1,1,1,0,1,1,0,0,0.666666666666667,0.69047619047619,0.608333333333333,0.616666666666667,NaN,0.8,NaN,0.6,455.6,1,0.693074544270833,5,5
1041,104,1,4,285,0,1,1,518,518,3,0,1,NaN,NaN,NaN,1,-0.936875191385423,0,0,NaN,NaN,1,0,0,1,1,1,1,0,0,1,1,1,0,1,1,1,0,1,1,0,0.666666666666667,0.678571428571429,0.608333333333333,0.625,NaN,0.8,NaN,0.6,482.4,1,0.693074544270833,5,5
1041,104,1,4,286,0,1,1,411,411,4,1,0,0.666666666666667,NaN,1,2,-1.7016301601656,0,0,0.666666666666667,NaN,0,1,0,0,1,1,1,1,0,0,0,1,1,0,1,1,1,0,1,1,0.666666666666667,0.666666666666667,0.65,0.633333333333333,NaN,0.6,NaN,0.4,487,1,0.67987060546875,5,5
1041,104,1,4,287,0,1,1,358,358,2,0,2,NaN,NaN,NaN,2,-2.08043402320625,0,0,NaN,NaN,0,0,1,0,0,1,1,1,1,0,1,0,1,1,0,1,1,1,0,1,0.666666666666667,0.654761904761905,0.65,0.641666666666667,NaN,0.6,NaN,0.2,444.8,1,0.67987060546875,5,5
1041,104,1,4,288,1,1,1,461,461,4,1,0,0.65,NaN,2,2,-1.34426802522159,0,1,NaN,0.65,0,0,0,1,0,0,1,1,1,1,0,1,0,1,1,0,1,1,1,0,0.666666666666667,0.642857142857143,0.65,0.65,NaN,0.6,NaN,0.2,451.4,1,0.67987060546875,5,5
1042,104,1,1,1,1,1,1,423,423,4,1,2,NaN,NaN,NaN,1,-1.61586324777904,0,1,NaN,NaN,NaN,NaN,NaN,NaN,NaN,NaN,NaN,NaN,NaN,NaN,NaN,NaN,NaN,NaN,NaN,NaN,NaN,NaN,NaN,NaN,NaN,NaN,NaN,NaN,NaN,0,NaN,0,0,0,NaN,5,5
1042,104,1,1,2,0,1,1,533,533,1,1,1,NaN,NaN,NaN,2,-0.829666550902221,0,0,NaN,NaN,1,NaN,NaN,NaN,NaN,NaN,NaN,NaN,NaN,NaN,1,NaN,NaN,NaN,NaN,NaN,NaN,NaN,NaN,NaN,NaN,NaN,NaN,NaN,NaN,0.2,NaN,0.2,84.6,0.2,NaN,5,5
1042,104,1,1,3,0,1,1,481,481,4,1,1,NaN,NaN,NaN,1,-1.20132317124399,0,0,NaN,NaN,0,1,NaN,NaN,NaN,NaN,NaN,NaN,NaN,NaN,1,1,NaN,NaN,NaN,NaN,NaN,NaN,NaN,NaN,NaN,NaN,NaN,NaN,NaN,0.4,NaN,0.2,191.2,0.4,NaN,5,5
1042,104,1,1,4,1,1,1,546,546,2,1,2,0.5,NaN,2,1,-0.736752395816779,0,1,NaN,0.5,0,0,1,NaN,NaN,NaN,NaN,NaN,NaN,NaN,1,1,1,NaN,NaN,NaN,NaN,NaN,NaN,NaN,NaN,NaN,0.5,0.5,NaN,0.6,NaN,0.2,287.4,0.6,NaN,5,5
1042,104,1,1,5,1,1,1,700,700,1,1,0,NaN,NaN,NaN,2,0.363922979810766,0,1,NaN,NaN,1,0,0,1,NaN,NaN,NaN,NaN,NaN,NaN,1,1,1,1,NaN,NaN,NaN,NaN,NaN,NaN,NaN,NaN,0.5,0.483333333333333,NaN,0.8,NaN,0.4,396.6,0.8,NaN,5,5
1042,104,1,1,6,0,1,1,574,574,3,0,2,0.533333333333333,NaN,1,2,-0.536629600248134,0,0,0.533333333333333,NaN,1,1,0,0,1,NaN,NaN,NaN,NaN,NaN,1,1,1,1,1,NaN,NaN,NaN,NaN,NaN,0.533333333333333,0.533333333333333,0.5,0.466666666666667,NaN,1,NaN,0.6,536.6,1,0.533333333333333,5,5
1042,104,1,1,7,0,1,0,686,NaN,3,0,1,NaN,NaN,NaN,2,NaN,0,0,NaN,NaN,0,1,1,0,0,1,NaN,NaN,NaN,NaN,0,1,1,1,1,1,NaN,NaN,NaN,NaN,0.533333333333333,0.491666666666667,0.4,0.45,NaN,0.8,NaN,0.4,NaN,1,0.533333333333333,5,5
1042,104,1,1,8,1,1,1,504,504,4,1,2,NaN,NaN,NaN,2,-1.03693658916975,0,1,NaN,NaN,0,0,1,1,0,0,1,NaN,NaN,NaN,0,0,1,1,1,1,1,NaN,NaN,NaN,0.533333333333333,0.45,0.4,0.433333333333333,NaN,0.6,NaN,0.4,NaN,0.8,0.533333333333333,5,5
1042,104,1,1,9,0,1,1,574,574,1,1,1,NaN,NaN,NaN,1,-0.536629600248134,0,0,NaN,NaN,1,0,0,1,1,0,0,1,NaN,NaN,1,0,0,1,1,1,1,1,NaN,NaN,0.533333333333333,0.408333333333333,0.4,0.416666666666667,NaN,0.6,NaN,0.6,NaN,0.8,0.533333333333333,5,5
1042,104,1,1,10,0,1,1,606,606,3,1,2,0.4,NaN,2,2,-0.307917833883969,0,0,NaN,0.4,0,1,0,0,1,1,0,0,1,NaN,1,1,0,0,1,1,1,1,1,NaN,0.241666666666667,0.366666666666667,0.4,0.4,NaN,0.6,NaN,0.4,NaN,0.8,0.533333333333333,5,5
1042,104,1,1,11,1,1,1,692,692,1,1,1,NaN,NaN,NaN,2,0.306745038219725,0,1,NaN,NaN,0,0,1,0,0,1,1,0,0,1,1,1,1,0,0,1,1,1,1,1,0.241666666666667,0.325,0.4,0.360714285714286,NaN,0.6,NaN,0.2,NaN,0.8,0.533333333333333,5,5
1042,104,1,1,12,1,1,1,470,470,3,1,2,NaN,NaN,NaN,2,-1.27994284093167,0,1,NaN,NaN,1,0,0,1,0,0,1,1,0,0,1,1,1,1,0,0,1,1,1,1,0.241666666666667,0.283333333333333,0.4,0.321428571428571,NaN,0.8,NaN,0.4,NaN,0.8,0.533333333333333,5,5
1042,104,1,1,13,0,1,1,568,568,4,1,0,0.241666666666667,NaN,1,2,-0.579513056441415,0,0,0.241666666666667,NaN,1,1,0,0,1,0,0,1,1,0,1,1,1,1,1,0,0,1,1,1,0.241666666666667,0.241666666666667,0.4,0.282142857142857,NaN,1,NaN,0.6,569.2,1,0.3875,5,5
1042,104,1,1,14,0,1,1,657,657,1,1,0,NaN,NaN,NaN,1,0.0565915437589194,0,0,NaN,NaN,0,1,1,0,0,1,0,0,1,1,1,1,1,1,1,1,0,0,1,1,0.241666666666667,0.220833333333333,0.125,0.242857142857143,NaN,1,NaN,0.4,582,1,0.3875,5,5
1042,104,1,1,15,1,1,1,482,482,4,1,2,NaN,NaN,NaN,2,-1.19417592854511,0,1,NaN,NaN,0,0,1,1,0,0,1,0,0,1,1,1,1,1,1,1,1,0,0,1,0.241666666666667,0.2,0.125,0.203571428571429,NaN,1,NaN,0.4,598.6,1,0.3875,5,5
1042,104,1,1,16,1,1,1,874,874,2,0,1,NaN,NaN,NaN,2,1.60754320941591,0,1,NaN,NaN,1,0,0,1,1,0,0,1,0,0,1,1,1,1,1,1,1,1,0,0,0.241666666666667,0.179166666666667,0.125,0.164285714285714,NaN,1,NaN,0.6,573.8,1,0.3875,5,5
1042,104,1,1,17,1,1,1,489,489,4,1,1,0.125,NaN,2,1,-1.14414522965295,0,1,NaN,0.125,1,1,0,0,1,1,0,0,1,0,0,1,1,1,1,1,1,1,1,0,0.075,0.158333333333333,0.125,0.125,NaN,0.8,NaN,0.6,610.2,1,0.3875,5,5
1042,104,1,1,18,1,1,0,555,NaN,2,0,2,NaN,NaN,NaN,2,NaN,0,1,NaN,NaN,1,1,1,0,0,1,1,0,0,1,1,0,1,1,1,1,1,1,1,1,0.075,0.1375,0.125,0.194047619047619,NaN,0.8,NaN,0.6,NaN,1,0.3875,5,5
1042,104,1,1,19,0,1,1,371,371,4,0,1,NaN,NaN,NaN,1,-1.98751986812081,0,0,NaN,NaN,1,1,1,1,0,0,1,1,0,0,0,1,0,1,1,1,1,1,1,1,0.075,0.116666666666667,0.125,0.263095238095238,NaN,0.6,NaN,0.8,NaN,0.8,0.3875,5,5
1042,104,1,1,20,0,1,1,514,514,3,1,0,NaN,NaN,NaN,2,-0.965464162180944,0,0,NaN,NaN,0,1,1,1,1,0,0,1,1,0,0,0,1,0,1,1,1,1,1,1,0.075,0.0958333333333333,0.125,0.332142857142857,NaN,0.4,NaN,0.8,NaN,0.8,0.3875,5,5
1042,104,1,1,21,1,1,1,437,437,4,1,1,0.075,NaN,1,1,-1.51580184999472,0,1,0.075,NaN,0,0,1,1,1,1,0,0,1,1,1,0,0,1,0,1,1,1,1,1,0.075,0.075,0.608333333333333,0.401190476190476,NaN,0.4,NaN,0.6,NaN,0.8,0.23125,5,5
1042,104,1,1,22,0,1,1,672,672,1,1,1,NaN,NaN,NaN,1,0.163800184242122,0,0,NaN,NaN,1,0,0,1,1,1,1,0,0,1,1,1,0,0,1,0,1,1,1,1,0.075,0.0880952380952381,0.608333333333333,0.470238095238095,NaN,0.6,NaN,0.6,NaN,0.8,0.23125,5,5
1042,104,1,1,23,1,1,1,439,439,4,1,1,NaN,NaN,NaN,2,-1.50150736459696,0,1,NaN,NaN,0,1,0,0,1,1,1,1,0,0,1,1,1,0,0,1,0,1,1,1,0.075,0.101190476190476,0.608333333333333,0.539285714285714,NaN,0.6,NaN,0.4,NaN,0.8,0.23125,5,5
1042,104,1,1,24,0,1,1,659,659,3,0,0,0.608333333333333,NaN,2,1,0.0708860291566797,0,0,NaN,0.608333333333333,1,0,1,0,0,1,1,1,1,0,1,1,1,1,0,0,1,0,1,1,0.075,0.114285714285714,0.608333333333333,0.608333333333333,NaN,0.8,NaN,0.4,486.6,1,0.23125,5,5
1042,104,1,1,25,1,1,0,505,NaN,3,0,0,NaN,NaN,NaN,2,NaN,0,1,NaN,NaN,0,1,0,1,0,0,1,1,1,1,0,1,1,1,1,0,0,1,0,1,0.166666666666667,0.127380952380952,0.608333333333333,0.605208333333333,NaN,0.8,NaN,0.4,NaN,1,0.23125,5,5
1042,104,1,1,26,0,1,1,375,375,4,1,2,NaN,NaN,NaN,2,-1.95893089732529,0,0,NaN,NaN,1,0,1,0,1,0,0,1,1,1,0,0,1,1,1,1,0,0,1,0,0.166666666666667,0.14047619047619,0.608333333333333,0.602083333333333,NaN,0.6,NaN,0.6,NaN,0.8,0.23125,5,5
1042,104,1,1,27,0,1,1,564,564,3,0,0,NaN,NaN,NaN,1,-0.608102027236936,0,0,NaN,NaN,0,1,0,1,0,1,0,0,1,1,1,0,0,1,1,1,1,0,0,1,0.166666666666667,0.153571428571429,0.608333333333333,0.598958333333333,NaN,0.6,NaN,0.4,NaN,0.8,0.23125,5,5
1042,104,1,1,28,0,1,1,614,614,1,0,0,0.166666666666667,NaN,1,2,-0.250739892292928,0,0,0.166666666666667,NaN,0,0,1,0,1,0,1,0,0,1,0,1,0,0,1,1,1,1,0,0,0.166666666666667,0.166666666666667,0.583333333333333,0.595833333333333,NaN,0.4,NaN,0.4,NaN,0.8,0.198958333333333,5,5
1042,104,1,1,29,0,1,1,527,527,4,1,1,NaN,NaN,NaN,1,-0.872550007095502,0,0,NaN,NaN,0,0,0,1,0,1,0,1,0,0,0,0,1,0,0,1,1,1,1,0,0.166666666666667,0.153571428571429,0.583333333333333,0.592708333333333,NaN,0.2,NaN,0.2,NaN,0.8,0.198958333333333,5,5
1042,104,1,1,30,1,1,1,487,487,2,1,1,NaN,NaN,NaN,1,-1.15843971505071,0,1,NaN,NaN,0,0,0,0,1,0,1,0,1,0,1,0,0,1,0,0,1,1,1,1,0.166666666666667,0.14047619047619,0.583333333333333,0.589583333333333,NaN,0.4,NaN,0.2,NaN,0.8,0.198958333333333,5,5
1042,104,1,1,31,0,1,1,590,590,1,1,0,NaN,NaN,NaN,2,-0.422273717066051,0,0,NaN,NaN,1,0,0,0,0,1,0,1,0,1,1,1,0,0,1,0,0,1,1,1,0.166666666666667,0.127380952380952,0.583333333333333,0.586458333333333,NaN,0.6,NaN,0.2,513.4,1,0.198958333333333,5,5
1042,104,1,1,32,1,1,1,475,475,4,1,1,0.583333333333333,NaN,2,1,-1.24420662743727,0,1,NaN,0.583333333333333,0,1,0,0,0,0,1,0,1,0,1,1,1,0,0,1,0,0,1,1,0.075,0.114285714285714,0.583333333333333,0.583333333333333,NaN,0.6,NaN,0.2,556.4,1,0.198958333333333,5,5
1042,104,1,1,33,0,1,1,437,437,1,1,1,NaN,NaN,NaN,1,-1.51580184999472,0,0,NaN,NaN,1,0,1,0,0,0,0,1,0,1,1,1,1,1,0,0,1,0,0,1,0.075,0.101190476190476,0.583333333333333,0.57,NaN,0.8,NaN,0.4,538.6,1,0.198958333333333,5,5
1042,104,1,1,34,1,1,1,533,533,3,1,2,NaN,NaN,NaN,1,-0.829666550902221,0,1,NaN,NaN,0,1,0,1,0,0,0,0,1,0,1,1,1,1,1,0,0,1,0,0,0.075,0.0880952380952381,0.583333333333333,0.556666666666667,NaN,1,NaN,0.4,503.2,1,0.198958333333333,5,5
1042,104,1,1,35,0,1,1,580,580,1,0,1,0.075,NaN,1,1,-0.493746144054853,0,0,0.075,NaN,1,0,1,0,1,0,0,0,0,1,1,1,1,1,1,1,0,0,1,0,0.075,0.075,0.516666666666667,0.543333333333333,NaN,1,NaN,0.6,504.4,1,0.136979166666667,5,5
1042,104,1,1,36,1,1,1,596,596,2,1,1,NaN,NaN,NaN,1,-0.379390260872771,0,1,NaN,NaN,0,1,0,1,0,1,0,0,0,0,0,1,1,1,1,1,1,0,0,1,0.075,0.0930555555555556,0.516666666666667,0.53,NaN,0.8,NaN,0.4,523,1,0.136979166666667,5,5
1042,104,1,1,37,0,1,1,549,549,3,1,0,0.516666666666667,NaN,2,2,-0.715310667720138,0,0,NaN,0.516666666666667,1,0,1,0,1,0,1,0,0,0,1,0,1,1,1,1,1,1,0,0,0.075,0.111111111111111,0.516666666666667,0.516666666666667,NaN,0.8,NaN,0.6,524.2,1,0.136979166666667,5,5
1042,104,1,1,38,0,1,1,533,533,1,1,2,NaN,NaN,NaN,2,-0.829666550902221,0,0,NaN,NaN,0,1,0,1,0,1,0,1,0,0,1,1,0,1,1,1,1,1,1,0,0.183333333333333,0.129166666666667,0.516666666666667,0.597222222222222,NaN,0.8,NaN,0.4,539,1,0.136979166666667,5,5
1042,104,1,1,39,0,1,1,632,632,2,1,0,NaN,NaN,NaN,2,-0.122089523713085,0,0,NaN,NaN,0,0,1,0,1,0,1,0,1,0,1,1,1,0,1,1,1,1,1,1,0.183333333333333,0.147222222222222,0.516666666666667,0.677777777777778,NaN,0.8,NaN,0.4,558.2,1,0.136979166666667,5,5
1042,104,1,1,40,0,1,1,492,492,1,1,2,NaN,NaN,NaN,2,-1.12270350155631,0,0,NaN,NaN,0,0,0,1,0,1,0,1,0,1,1,1,1,1,0,1,1,1,1,1,0.183333333333333,0.165277777777778,1,0.758333333333333,NaN,0.8,NaN,0.2,578,1,0.136979166666667,5,5
1042,104,1,1,41,0,1,1,642,642,3,1,0,0.183333333333333,NaN,1,1,-0.050617096724283,0,0,0.183333333333333,NaN,0,0,0,0,1,0,1,0,1,0,1,1,1,1,1,0,1,1,1,1,0.183333333333333,0.183333333333333,1,0.838888888888889,NaN,1,NaN,0.2,560.4,1,0.16015625,5,5
1042,104,1,1,42,0,1,0,553,NaN,3,1,2,NaN,NaN,NaN,1,NaN,0,0,NaN,NaN,0,0,0,0,0,1,0,1,0,1,1,1,1,1,1,1,0,1,1,1,0.183333333333333,0.23125,1,0.919444444444445,NaN,1,NaN,0,NaN,1,0.16015625,5,5
1042,104,1,1,43,0,1,0,620,NaN,2,1,0,1,NaN,2,1,NaN,0,0,NaN,1,0,0,0,0,0,0,1,0,1,0,1,1,1,1,1,1,1,0,1,1,0.375,0.279166666666667,1,1,NaN,1,NaN,0,NaN,0.8,0.16015625,5,5
1042,104,1,1,44,0,1,0,586,NaN,3,1,0,NaN,NaN,NaN,1,NaN,0,0,NaN,NaN,0,0,0,0,0,0,0,1,0,1,1,1,1,1,1,1,1,1,0,1,0.375,0.327083333333333,1,0.8875,NaN,1,NaN,0,NaN,0.6,0.16015625,5,5
1042,104,1,1,45,0,1,0,675,NaN,2,0,2,0.375,NaN,1,2,NaN,0,0,0.375,NaN,0,0,0,0,0,0,0,0,1,0,1,1,1,1,1,1,1,1,1,0,0.375,0.375,0.55,0.775,NaN,1,NaN,0,NaN,0.4,0.267578125,5,5
1042,104,1,1,46,1,1,1,759,759,2,1,1,NaN,NaN,NaN,2,0.785610299044696,0,1,NaN,NaN,0,0,0,0,0,0,0,0,0,1,0,1,1,1,1,1,1,1,1,1,0.375,0.401666666666667,0.55,0.6625,NaN,0.8,NaN,0,NaN,0.2,0.267578125,5,5
1042,104,1,1,47,0,1,1,658,658,1,1,1,0.55,NaN,2,1,0.0637387864577996,0,0,NaN,0.55,1,0,0,0,0,0,0,0,0,0,1,0,1,1,1,1,1,1,1,1,0.375,0.428333333333333,0.55,0.55,NaN,0.8,NaN,0.2,NaN,0.2,0.267578125,5,5
1042,104,1,1,48,0,1,1,660,660,4,0,0,NaN,NaN,NaN,2,0.0780332718555599,0,0,NaN,NaN,0,1,0,0,0,0,0,0,0,0,1,1,0,1,1,1,1,1,1,1,0.508333333333333,0.455,0.55,0.533333333333333,NaN,0.8,NaN,0.2,NaN,0.4,0.267578125,5,5
1042,104,1,1,49,0,1,0,557,NaN,3,1,0,NaN,NaN,NaN,1,NaN,0,0,NaN,NaN,0,0,1,0,0,0,0,0,0,0,0,1,1,0,1,1,1,1,1,1,0.508333333333333,0.481666666666667,0.55,0.516666666666667,NaN,0.6,NaN,0.2,NaN,0.6,0.267578125,5,5
1042,104,1,1,50,1,1,1,532,532,3,1,2,0.508333333333333,NaN,1,2,-0.836813793601101,0,1,0.508333333333333,NaN,0,0,0,1,0,0,0,0,0,0,1,0,1,1,0,1,1,1,1,1,0.508333333333333,0.508333333333333,0.466666666666667,0.5,NaN,0.6,NaN,0.2,NaN,0.6,0.387955729166667,5,5
1042,104,1,1,51,0,1,1,602,602,1,1,1,NaN,NaN,NaN,1,-0.33650680467949,0,0,NaN,NaN,1,0,0,0,1,0,0,0,0,0,1,1,0,1,1,0,1,1,1,1,0.508333333333333,0.43,0.466666666666667,0.483333333333333,NaN,0.8,NaN,0.4,NaN,0.8,0.387955729166667,5,5
1042,104,1,1,52,0,1,1,649,649,2,0,2,0.466666666666667,NaN,2,2,-0.000586397832121906,0,0,NaN,0.466666666666667,0,1,0,0,0,1,0,0,0,0,1,1,1,0,1,1,0,1,1,1,0.508333333333333,0.351666666666667,0.466666666666667,0.466666666666667,NaN,0.8,NaN,0.2,NaN,0.8,0.387955729166667,5,5
1042,104,1,1,53,0,1,1,634,634,3,0,0,NaN,NaN,NaN,2,-0.107795038315324,0,0,NaN,NaN,0,0,1,0,0,0,1,0,0,0,0,1,1,1,0,1,1,0,1,1,0.116666666666667,0.273333333333333,0.466666666666667,0.468333333333333,NaN,0.6,NaN,0.2,NaN,0.8,0.387955729166667,5,5
1042,104,1,1,54,0,1,1,480,480,4,1,1,NaN,NaN,NaN,1,-1.20847041394287,0,0,NaN,NaN,0,0,0,1,0,0,0,1,0,0,0,0,1,1,1,0,1,1,0,1,0.116666666666667,0.195,0.466666666666667,0.47,NaN,0.6,NaN,0.2,NaN,0.8,0.387955729166667,5,5
1042,104,1,1,55,0,1,0,611,NaN,3,1,0,0.116666666666667,NaN,1,1,NaN,0,0,0.116666666666667,NaN,0,0,0,0,1,0,0,0,1,0,1,0,0,1,1,1,0,1,1,0,0.116666666666667,0.116666666666667,0.475,0.471666666666667,NaN,0.6,NaN,0.2,NaN,1,0.252311197916667,5,5
1042,104,1,1,56,0,1,1,605,605,1,1,2,NaN,NaN,NaN,1,-0.315065076582849,0,0,NaN,NaN,0,0,0,0,0,1,0,0,0,1,1,1,0,0,1,1,1,0,1,1,0.116666666666667,0.140277777777778,0.475,0.473333333333333,NaN,0.6,NaN,0,NaN,0.8,0.252311197916667,5,5
1042,104,1,1,57,0,1,1,494,494,4,0,0,0.475,NaN,2,2,-1.10840901615855,0,0,NaN,0.475,0,0,0,0,0,0,1,0,0,0,1,1,1,0,0,1,1,1,0,1,0.116666666666667,0.163888888888889,0.475,0.475,NaN,0.6,NaN,0,NaN,0.8,0.252311197916667,5,5
1042,104,1,1,58,0,1,1,663,663,2,0,2,NaN,NaN,NaN,2,0.0994749999522004,0,0,NaN,NaN,0,0,0,0,0,0,0,1,0,0,0,1,1,1,0,0,1,1,1,0,0.258333333333333,0.1875,0.475,0.526190476190476,NaN,0.6,NaN,0,NaN,0.8,0.252311197916667,5,5
1042,104,1,1,59,0,1,1,481,481,3,1,1,NaN,NaN,NaN,1,-1.20132317124399,0,0,NaN,NaN,0,0,0,0,0,0,0,0,1,0,0,0,1,1,1,0,0,1,1,1,0.258333333333333,0.211111111111111,0.475,0.577380952380952,NaN,0.6,NaN,0,NaN,0.8,0.252311197916667,5,5
1042,104,1,1,60,0,1,1,486,486,4,1,2,NaN,NaN,NaN,2,-1.16558695774959,0,0,NaN,NaN,0,0,0,0,0,0,0,0,0,1,1,0,0,1,1,1,0,0,1,1,0.258333333333333,0.234722222222222,0.475,0.628571428571429,NaN,0.6,NaN,0,NaN,0.8,0.252311197916667,5,5
1042,104,1,1,61,0,1,0,607,NaN,3,1,0,0.258333333333333,NaN,1,2,NaN,0,0,0.258333333333333,NaN,0,0,0,0,0,0,0,0,0,0,1,1,0,0,1,1,1,0,0,1,0.258333333333333,0.258333333333333,0.833333333333333,0.679761904761905,NaN,0.6,NaN,0,NaN,1,0.255322265625,5,5
1042,104,1,1,62,0,1,1,474,474,4,1,0,NaN,NaN,NaN,1,-1.25135387013615,0,0,NaN,NaN,0,0,0,0,0,0,0,0,0,0,1,1,1,0,0,1,1,1,0,0,0.258333333333333,0.363333333333333,0.833333333333333,0.730952380952381,NaN,0.6,NaN,0,NaN,0.8,0.255322265625,5,5
1042,104,1,1,63,0,1,1,600,600,2,1,1,NaN,NaN,NaN,2,-0.35080129007725,0,0,NaN,NaN,0,0,0,0,0,0,0,0,0,0,1,1,1,1,0,0,1,1,1,0,0.258333333333333,0.468333333333333,0.833333333333333,0.782142857142857,NaN,0.8,NaN,0,NaN,0.8,0.255322265625,5,5
1042,104,1,1,64,0,1,1,779,779,3,1,0,0.833333333333333,NaN,2,2,0.928555153022299,0,0,NaN,0.833333333333333,0,0,0,0,0,0,0,0,0,0,1,1,1,1,1,0,0,1,1,1,0.783333333333333,0.573333333333333,0.833333333333333,0.833333333333333,NaN,1,NaN,0,NaN,0.8,0.255322265625,5,5
1042,104,1,1,65,0,1,1,586,586,2,1,1,NaN,NaN,NaN,1,-0.450862687861572,0,0,NaN,NaN,0,0,0,0,0,0,0,0,0,0,1,1,1,1,1,1,0,0,1,1,0.783333333333333,0.678333333333333,0.833333333333333,0.833333333333333,NaN,1,NaN,0,NaN,0.8,0.255322265625,5,5
1042,104,1,1,66,1,1,1,535,535,3,1,1,0.783333333333333,NaN,1,1,-0.815372065504461,0,1,0.783333333333333,NaN,0,0,0,0,0,0,0,0,0,0,1,1,1,1,1,1,1,0,0,1,0.783333333333333,0.783333333333333,0.833333333333333,0.833333333333333,NaN,1,NaN,0,NaN,0.8,0.519327799479167,5,5
1042,104,1,1,67,0,1,1,490,490,4,0,2,NaN,NaN,NaN,2,-1.13699798695407,0,0,NaN,NaN,1,0,0,0,0,0,0,0,0,0,1,1,1,1,1,1,1,1,0,0,0.783333333333333,0.683333333333333,0.833333333333333,0.833333333333333,NaN,1,NaN,0.2,594.8,1,0.519327799479167,5,5
1042,104,1,1,68,1,1,1,549,549,3,1,0,NaN,NaN,NaN,1,-0.715310667720138,0,1,NaN,NaN,0,1,0,0,0,0,0,0,0,0,0,1,1,1,1,1,1,1,1,0,0.783333333333333,0.583333333333333,0.833333333333333,0.833333333333333,NaN,0.8,NaN,0.2,598,1,0.519327799479167,5,5
1042,104,1,1,69,0,1,1,757,757,2,1,0,0.833333333333333,NaN,2,1,0.771315813646936,0,0,NaN,0.833333333333333,1,0,1,0,0,0,0,0,0,0,1,0,1,1,1,1,1,1,1,1,0.183333333333333,0.483333333333333,0.833333333333333,0.833333333333333,NaN,0.8,NaN,0.4,587.8,1,0.519327799479167,5,5
1042,104,1,1,70,0,1,0,604,NaN,3,1,0,NaN,NaN,NaN,1,NaN,0,0,NaN,NaN,0,1,0,1,0,0,0,0,0,0,1,1,0,1,1,1,1,1,1,1,0.183333333333333,0.383333333333333,0.833333333333333,0.836904761904762,NaN,0.8,NaN,0.4,NaN,1,0.519327799479167,5,5
1042,104,1,1,71,0,1,1,781,781,3,1,0,NaN,NaN,NaN,1,0.94284963842006,0,0,NaN,NaN,0,0,1,0,1,0,0,0,0,0,1,1,1,0,1,1,1,1,1,1,0.183333333333333,0.283333333333333,0.833333333333333,0.84047619047619,NaN,0.8,NaN,0.4,NaN,0.8,0.519327799479167,5,5
1042,104,1,1,72,0,1,1,456,456,2,1,1,0.183333333333333,NaN,1,2,-1.38000423871599,0,0,0.183333333333333,NaN,0,0,0,1,0,1,0,0,0,0,1,1,1,1,0,1,1,1,1,1,0.183333333333333,0.183333333333333,0.833333333333333,0.844047619047619,NaN,0.8,NaN,0.2,NaN,0.8,0.35133056640625,5,5
1042,104,1,2,73,0,1,1,469,469,4,1,1,NaN,NaN,NaN,2,-1.28709008363055,0,0,NaN,NaN,0,0,0,0,1,0,1,0,0,0,1,1,1,1,1,0,1,1,1,1,0.183333333333333,0.2375,0.858333333333333,0.847619047619048,NaN,1,NaN,0.2,NaN,0.8,NaN,5,5
1042,104,1,2,74,0,1,1,613,613,2,1,2,NaN,NaN,NaN,2,-0.257887134991808,0,0,NaN,NaN,0,0,0,0,0,1,0,1,0,0,1,1,1,1,1,1,0,1,1,1,0.183333333333333,0.291666666666667,0.858333333333333,0.851190476190476,NaN,1,NaN,0,NaN,0.8,NaN,5,5
1042,104,1,2,75,0,1,1,624,624,3,1,0,NaN,NaN,NaN,2,-0.179267465304126,0,0,NaN,NaN,0,0,0,0,0,0,1,0,1,0,1,1,1,1,1,1,1,0,1,1,0.508333333333333,0.345833333333333,0.858333333333333,0.854761904761905,NaN,1,NaN,0,NaN,0.8,NaN,5,5
1042,104,1,2,76,0,1,1,638,638,1,1,2,0.858333333333333,NaN,2,1,-0.0792060675198037,0,0,NaN,0.858333333333333,0,0,0,0,0,0,0,1,0,1,1,1,1,1,1,1,1,1,0,1,0.508333333333333,0.4,0.858333333333333,0.858333333333333,NaN,1,NaN,0,588.6,1,NaN,5,5
1042,104,1,2,77,0,1,1,699,699,2,1,0,NaN,NaN,NaN,1,0.356775737111886,0,0,NaN,NaN,0,0,0,0,0,0,0,0,1,0,1,1,1,1,1,1,1,1,1,0,0.508333333333333,0.454166666666667,0.858333333333333,0.854166666666667,NaN,1,NaN,0,560,1,NaN,5,5
1042,104,1,2,78,0,1,1,560,560,4,0,1,0.508333333333333,NaN,1,2,-0.636690998032456,0,0,0.508333333333333,NaN,0,0,0,0,0,0,0,0,0,1,1,1,1,1,1,1,1,1,1,1,0.508333333333333,0.508333333333333,0.858333333333333,0.85,NaN,1,NaN,0,608.6,1,0.508333333333333,5,5
1042,104,1,2,79,0,1,1,520,520,3,1,1,NaN,NaN,NaN,1,-0.922580705987663,0,0,NaN,NaN,0,0,0,0,0,0,0,0,0,0,0,1,1,1,1,1,1,1,1,1,0.508333333333333,0.482777777777778,0.833333333333333,0.845833333333333,NaN,0.8,NaN,0,626.8,1,0.508333333333333,5,5
1042,104,1,2,80,0,1,1,455,455,2,1,2,NaN,NaN,NaN,1,-1.38715148141487,0,0,NaN,NaN,0,0,0,0,0,0,0,0,0,0,1,0,1,1,1,1,1,1,1,1,0.508333333333333,0.457222222222222,0.833333333333333,0.841666666666667,NaN,0.8,NaN,0,608.2,1,0.508333333333333,5,5
1042,104,1,2,81,0,1,1,484,484,4,1,1,NaN,NaN,NaN,1,-1.17988144314735,0,0,NaN,NaN,0,0,0,0,0,0,0,0,0,0,1,1,0,1,1,1,1,1,1,1,0.508333333333333,0.431666666666667,0.833333333333333,0.8375,NaN,0.8,NaN,0,574.4,1,0.508333333333333,5,5
1042,104,1,2,82,0,1,1,552,552,3,1,2,0.833333333333333,NaN,2,1,-0.693868939623498,0,0,NaN,0.833333333333333,0,0,0,0,0,0,0,0,0,0,1,1,1,0,1,1,1,1,1,1,0.508333333333333,0.406111111111111,0.833333333333333,0.833333333333333,NaN,0.8,NaN,0,543.6,1,0.508333333333333,5,5
1042,104,1,2,83,0,1,1,455,455,4,1,0,NaN,NaN,NaN,2,-1.38715148141487,0,0,NaN,NaN,0,0,0,0,0,0,0,0,0,0,1,1,1,1,0,1,1,1,1,1,0.508333333333333,0.380555555555556,0.833333333333333,0.782142857142857,NaN,0.8,NaN,0,514.2,1,0.508333333333333,5,5
1042,104,1,2,84,0,1,0,694,NaN,2,1,2,NaN,NaN,NaN,2,NaN,0,0,NaN,NaN,0,0,0,0,0,0,0,0,0,0,1,1,1,1,1,0,1,1,1,1,0.508333333333333,0.355,0.833333333333333,0.730952380952381,NaN,1,NaN,0,NaN,1,0.508333333333333,5,5
1042,104,1,2,85,0,1,0,613,NaN,3,1,1,NaN,NaN,1,2,NaN,0,0,NaN,NaN,0,0,0,0,0,0,0,0,0,0,1,1,1,1,1,1,0,1,1,1,0.508333333333333,0.329444444444444,0.833333333333333,0.679761904761905,NaN,1,NaN,0,NaN,0.8,NaN,5,5
1042,104,1,2,86,1,1,1,635,635,1,1,0,NaN,NaN,NaN,1,-0.100647795616444,0,1,NaN,NaN,0,0,0,0,0,0,0,0,0,0,1,1,1,1,1,1,1,0,1,1,0.125,0.303888888888889,0.475,0.628571428571429,NaN,1,NaN,0,NaN,0.6,NaN,5,5
1042,104,1,2,87,0,1,1,692,692,3,0,2,NaN,NaN,NaN,1,0.306745038219725,0,0,NaN,NaN,1,0,0,0,0,0,0,0,0,0,1,1,1,1,1,1,1,1,0,1,0.125,0.278333333333333,0.475,0.577380952380952,NaN,1,NaN,0.2,NaN,0.6,NaN,5,5
1042,104,1,2,88,0,1,1,592,592,1,1,1,NaN,NaN,NaN,1,-0.407979231668291,0,0,NaN,NaN,0,1,0,0,0,0,0,0,0,0,0,1,1,1,1,1,1,1,1,0,0.125,0.252777777777778,0.475,0.526190476190476,NaN,0.8,NaN,0.2,NaN,0.6,NaN,5,5
1042,104,1,2,89,1,1,1,527,527,3,1,1,0.475,NaN,2,2,-0.872550007095502,0,1,NaN,0.475,0,0,1,0,0,0,0,0,0,0,1,0,1,1,1,1,1,1,1,1,0.125,0.227222222222222,0.475,0.475,NaN,0.8,NaN,0.2,NaN,0.6,NaN,5,5
1042,104,1,2,90,0,1,1,512,512,4,1,2,NaN,NaN,NaN,1,-0.979758647578704,0,0,NaN,NaN,1,0,0,1,0,0,0,0,0,0,1,1,0,1,1,1,1,1,1,1,0.125,0.201666666666667,0.475,0.439285714285714,NaN,0.8,NaN,0.4,NaN,0.8,NaN,5,5
1042,104,1,2,91,0,1,0,595,NaN,3,1,0,NaN,NaN,NaN,2,NaN,0,0,NaN,NaN,0,1,0,0,1,0,0,0,0,0,1,1,1,0,1,1,1,1,1,1,0.125,0.176111111111111,0.475,0.403571428571429,NaN,0.8,NaN,0.4,NaN,1,NaN,5,5
1042,104,1,2,92,0,1,1,720,720,3,1,2,NaN,NaN,NaN,1,0.50686783378837,0,0,NaN,NaN,0,0,1,0,0,1,0,0,0,0,1,1,1,1,0,1,1,1,1,1,0.125,0.150555555555556,0.475,0.367857142857143,NaN,0.8,NaN,0.2,NaN,0.8,NaN,5,5
1042,104,1,2,93,0,1,0,564,NaN,3,1,1,0.125,NaN,1,2,NaN,0,0,0.125,NaN,0,0,0,1,0,0,1,0,0,0,1,1,1,1,1,0,1,1,1,1,0.125,0.125,0.225,0.332142857142857,NaN,1,NaN,0.2,NaN,0.8,0.125,5,5
1042,104,1,2,94,0,1,1,524,524,1,1,2,NaN,NaN,NaN,2,-0.893991735192142,0,0,NaN,NaN,0,0,0,0,1,0,0,1,0,0,1,1,1,1,1,1,0,1,1,1,0.125,0.246428571428571,0.225,0.296428571428571,NaN,1,NaN,0.2,NaN,0.6,0.125,5,5
1042,104,1,2,95,0,1,0,531,NaN,3,1,1,NaN,NaN,NaN,2,NaN,0,0,NaN,NaN,0,0,0,0,0,1,0,0,1,0,1,1,1,1,1,1,1,0,1,1,0.125,0.367857142857143,0.225,0.260714285714286,NaN,1,NaN,0,NaN,0.6,0.125,5,5
1042,104,1,2,96,0,1,1,739,739,4,1,0,0.225,NaN,2,2,0.642665445067093,0,0,NaN,0.225,0,0,0,0,0,0,1,0,0,1,1,1,1,1,1,1,1,1,0,1,0.125,0.489285714285714,0.225,0.225,NaN,1,NaN,0,NaN,0.4,0.125,5,5
1042,104,1,2,97,0,1,1,625,625,2,1,1,NaN,NaN,NaN,2,-0.172120222605246,0,0,NaN,NaN,0,0,0,0,0,0,0,1,0,0,1,1,1,1,1,1,1,1,1,0,0.975,0.610714285714286,0.225,0.305208333333333,NaN,1,NaN,0,NaN,0.6,0.125,5,5
1042,104,1,2,98,0,1,1,600,600,4,1,2,NaN,NaN,NaN,2,-0.35080129007725,0,0,NaN,NaN,0,0,0,0,0,0,0,0,1,0,1,1,1,1,1,1,1,1,1,1,0.975,0.732142857142857,0.225,0.385416666666667,NaN,1,NaN,0,NaN,0.6,0.125,5,5
1042,104,1,2,99,0,1,1,709,709,1,1,0,NaN,NaN,NaN,2,0.428248164100688,0,0,NaN,NaN,0,0,0,0,0,0,0,0,0,1,1,1,1,1,1,1,1,1,1,1,0.975,0.853571428571429,0.225,0.465625,NaN,1,NaN,0,NaN,0.8,0.125,5,5
1042,104,1,2,100,0,1,1,664,664,3,1,1,0.975,NaN,1,1,0.106622242651081,0,0,0.975,NaN,0,0,0,0,0,0,0,0,0,0,1,1,1,1,1,1,1,1,1,1,0.975,0.975,0.866666666666667,0.545833333333333,NaN,1,NaN,0,NaN,0.8,0.55,5,5
1042,104,1,2,101,0,1,1,648,648,4,1,1,NaN,NaN,NaN,1,-0.00773364053100207,0,0,NaN,NaN,0,0,0,0,0,0,0,0,0,0,1,1,1,1,1,1,1,1,1,1,0.975,0.975,0.866666666666667,0.626041666666667,NaN,1,NaN,0,667.4,1,0.55,5,5
1042,104,1,2,102,0,1,1,531,531,2,1,1,NaN,NaN,NaN,2,-0.843961036299981,0,0,NaN,NaN,0,0,0,0,0,0,0,0,0,0,1,1,1,1,1,1,1,1,1,1,0.975,0.975,0.866666666666667,0.70625,NaN,1,NaN,0,649.2,1,0.55,5,5
1042,104,1,2,103,0,1,1,556,556,4,1,0,NaN,NaN,NaN,1,-0.665279968827977,0,0,NaN,NaN,0,0,0,0,0,0,0,0,0,0,1,1,1,1,1,1,1,1,1,1,0.975,0.975,0.866666666666667,0.786458333333333,NaN,1,NaN,0,630.4,1,0.55,5,5
1042,104,1,2,104,0,1,1,706,706,1,1,1,0.866666666666667,NaN,2,2,0.406806436004047,0,0,NaN,0.866666666666667,0,0,0,0,0,0,0,0,0,0,1,1,1,1,1,1,1,1,1,1,0.975,0.975,0.866666666666667,0.866666666666667,NaN,1,NaN,0,621.6,1,0.55,5,5
1042,104,1,2,105,1,1,1,581,581,3,1,2,NaN,NaN,NaN,1,-0.486598901355973,0,1,NaN,NaN,0,0,0,0,0,0,0,0,0,0,1,1,1,1,1,1,1,1,1,1,0.975,0.975,0.866666666666667,0.888333333333333,NaN,1,NaN,0,621,1,0.55,5,5
1042,104,1,2,106,0,1,1,522,522,2,1,0,NaN,NaN,NaN,2,-0.908286220589903,0,0,NaN,NaN,1,0,0,0,0,0,0,0,0,0,1,1,1,1,1,1,1,1,1,1,0.975,0.975,0.866666666666667,0.91,NaN,1,NaN,0.2,604.4,1,0.55,5,5
1042,104,1,2,107,1,1,1,536,536,4,1,2,0.975,NaN,1,1,-0.80822482280558,0,1,0.975,NaN,0,1,0,0,0,0,0,0,0,0,1,1,1,1,1,1,1,1,1,1,0.975,0.975,0.975,0.931666666666667,NaN,1,NaN,0.2,579.2,1,0.7625,5,5
1042,104,1,2,108,1,1,1,546,546,3,1,1,NaN,NaN,NaN,1,-0.736752395816779,0,1,NaN,NaN,1,0,1,0,0,0,0,0,0,0,1,1,1,1,1,1,1,1,1,1,0.975,0.920833333333333,0.975,0.953333333333333,NaN,1,NaN,0.4,580.2,1,0.7625,5,5
1042,104,1,2,109,0,1,1,590,590,1,1,0,0.975,NaN,2,2,-0.422273717066051,0,0,NaN,0.975,1,1,0,1,0,0,0,0,0,0,1,1,1,1,1,1,1,1,1,1,0.975,0.866666666666667,0.975,0.975,NaN,1,NaN,0.6,578.2,1,0.7625,5,5
1042,104,1,2,110,1,1,0,504,NaN,3,0,0,NaN,NaN,NaN,1,NaN,0,1,NaN,NaN,0,1,1,0,1,0,0,0,0,0,1,1,1,1,1,1,1,1,1,1,0.65,0.8125,0.975,0.902777777777778,NaN,1,NaN,0.6,NaN,1,0.7625,5,5
1042,104,1,2,111,0,1,1,586,586,4,1,2,NaN,NaN,NaN,1,-0.450862687861572,0,0,NaN,NaN,1,0,1,1,0,1,0,0,0,0,0,1,1,1,1,1,1,1,1,1,0.65,0.758333333333333,0.975,0.830555555555555,NaN,0.8,NaN,0.6,NaN,0.8,0.7625,5,5
1042,104,1,2,112,1,1,1,702,702,1,1,1,NaN,NaN,NaN,2,0.378217465208527,0,1,NaN,NaN,0,1,0,1,1,0,1,0,0,0,1,0,1,1,1,1,1,1,1,1,0.65,0.704166666666667,0.541666666666667,0.758333333333333,NaN,0.8,NaN,0.6,NaN,0.8,0.7625,5,5
1042,104,1,2,113,1,1,1,960,960,3,0,0,0.65,NaN,1,1,2.22220608151961,0,1,0.65,NaN,1,0,1,0,1,1,0,1,0,0,1,1,0,1,1,1,1,1,1,1,0.65,0.65,0.541666666666667,0.686111111111111,NaN,0.8,NaN,0.6,NaN,0.8,0.70625,5,5
1042,104,1,2,114,0,1,0,576,NaN,4,0,1,NaN,NaN,NaN,1,NaN,0,0,NaN,NaN,1,1,0,1,0,1,1,0,1,0,0,1,1,0,1,1,1,1,1,1,0.65,0.514583333333333,0.541666666666667,0.613888888888889,NaN,0.6,NaN,0.6,NaN,0.8,0.70625,5,5
1042,104,1,2,115,0,1,1,547,547,3,1,1,0.541666666666667,NaN,2,2,-0.729605153117899,0,0,NaN,0.541666666666667,0,1,1,0,1,0,1,1,0,1,0,0,1,1,0,1,1,1,1,1,0.108333333333333,0.379166666666667,0.541666666666667,0.541666666666667,NaN,0.4,NaN,0.6,NaN,0.6,0.70625,5,5
1042,104,1,2,116,1,1,0,595,NaN,3,0,1,NaN,NaN,NaN,1,NaN,0,1,NaN,NaN,0,0,1,1,0,1,0,1,1,0,1,0,0,1,1,0,1,1,1,1,0.108333333333333,0.24375,0.541666666666667,0.564583333333333,NaN,0.6,NaN,0.4,NaN,0.8,0.70625,5,5
1042,104,1,2,117,0,1,1,519,519,1,0,1,0.108333333333333,NaN,1,2,-0.929727948686543,0,0,0.108333333333333,NaN,1,0,0,1,1,0,1,0,1,1,0,1,0,0,1,1,0,1,1,1,0.108333333333333,0.108333333333333,0.633333333333333,0.5875,NaN,0.4,NaN,0.6,NaN,0.6,0.407291666666667,5,5
1042,104,1,2,118,0,1,1,571,571,3,1,0,NaN,NaN,NaN,1,-0.558071328344775,0,0,NaN,NaN,0,1,0,0,1,1,0,1,0,1,0,0,1,0,0,1,1,0,1,1,0.108333333333333,0.105,0.633333333333333,0.610416666666667,NaN,0.2,NaN,0.4,NaN,0.6,0.407291666666667,5,5
1042,104,1,2,119,0,1,0,595,NaN,3,1,2,0.633333333333333,NaN,2,1,NaN,0,0,NaN,0.633333333333333,0,0,1,0,0,1,1,0,1,0,1,0,0,1,0,0,1,1,0,1,0.108333333333333,0.101666666666667,0.633333333333333,0.633333333333333,NaN,0.4,NaN,0.2,NaN,0.6,0.407291666666667,5,5
1042,104,1,2,120,0,1,1,719,719,3,0,0,NaN,NaN,NaN,1,0.499720591089489,0,0,NaN,NaN,0,0,0,1,0,0,1,1,0,1,1,1,0,0,1,0,0,1,1,0,0.0916666666666667,0.0983333333333333,0.633333333333333,0.638333333333333,NaN,0.6,NaN,0.2,NaN,0.6,0.407291666666667,5,5
1042,104,1,2,121,1,1,1,473,473,1,1,1,NaN,NaN,NaN,2,-1.25850111283503,0,1,NaN,NaN,0,0,0,0,1,0,0,1,1,0,0,1,1,0,0,1,0,0,1,1,0.0916666666666667,0.095,0.633333333333333,0.643333333333333,NaN,0.4,NaN,0.2,NaN,0.6,0.407291666666667,5,5
1042,104,1,2,122,0,1,0,568,NaN,3,1,1,0.0916666666666667,NaN,1,2,NaN,0,0,0.0916666666666667,NaN,1,0,0,0,0,1,0,0,1,1,1,0,1,1,0,0,1,0,0,1,0.0916666666666667,0.0916666666666667,0.658333333333333,0.648333333333333,NaN,0.6,NaN,0.2,NaN,0.8,0.249479166666667,5,5
1042,104,1,2,123,1,1,0,385,NaN,1,0,2,NaN,NaN,NaN,2,NaN,0,1,NaN,NaN,0,1,0,0,0,0,1,0,0,1,1,1,0,1,1,0,0,1,0,0,0.0916666666666667,0.0983333333333333,0.658333333333333,0.653333333333333,NaN,0.8,NaN,0.2,NaN,0.6,0.249479166666667,5,5
1042,104,1,2,124,1,1,1,549,549,4,1,0,0.658333333333333,NaN,2,1,-0.715310667720138,0,1,NaN,0.658333333333333,1,0,1,0,0,0,0,1,0,0,0,1,1,0,1,1,0,0,1,0,0.0916666666666667,0.105,0.658333333333333,0.658333333333333,NaN,0.6,NaN,0.4,NaN,0.4,0.249479166666667,5,5
1042,104,1,2,125,1,1,1,621,621,3,1,0,NaN,NaN,NaN,1,-0.200709193400766,0,1,NaN,NaN,1,1,0,1,0,0,0,0,1,0,1,0,1,1,0,1,1,0,0,1,0.125,0.111666666666667,0.658333333333333,0.671666666666667,NaN,0.6,NaN,0.6,NaN,0.6,0.249479166666667,5,5
1042,104,1,2,126,0,1,0,678,NaN,3,0,1,NaN,NaN,NaN,1,NaN,0,0,NaN,NaN,1,1,1,0,1,0,0,0,0,1,1,1,0,1,1,0,1,1,0,0,0.125,0.118333333333333,0.658333333333333,0.685,NaN,0.8,NaN,0.8,NaN,0.6,0.249479166666667,5,5
1042,104,1,2,127,0,1,1,600,600,3,0,0,0.125,NaN,1,2,-0.35080129007725,0,0,0.125,NaN,0,1,1,1,0,1,0,0,0,0,0,1,1,0,1,1,0,1,1,0,0.125,0.125,0.725,0.698333333333333,NaN,0.6,NaN,0.6,NaN,0.4,0.187239583333333,5,5
1042,104,1,2,128,1,1,0,653,NaN,2,0,0,NaN,NaN,NaN,2,NaN,0,1,NaN,NaN,0,0,1,1,1,0,1,0,0,0,0,0,1,1,0,1,1,0,1,1,0.125,0.127777777777778,0.725,0.711666666666667,NaN,0.4,NaN,0.6,NaN,0.6,0.187239583333333,5,5
1042,104,1,2,129,1,1,1,502,502,4,1,2,0.725,NaN,2,2,-1.05123107456751,0,1,NaN,0.725,1,0,0,1,1,1,0,1,0,0,0,0,0,1,1,0,1,1,0,1,0.125,0.130555555555556,0.725,0.725,NaN,0.4,NaN,0.6,NaN,0.6,0.187239583333333,5,5
1042,104,1,2,130,1,1,1,611,611,3,1,1,NaN,NaN,NaN,1,-0.272181620389568,0,1,NaN,NaN,1,1,0,0,1,1,1,0,1,0,1,0,0,0,1,1,0,1,1,0,0.141666666666667,0.133333333333333,0.725,0.728571428571429,NaN,0.4,NaN,0.6,NaN,0.6,0.187239583333333,5,5
1042,104,1,2,131,1,1,1,563,563,2,1,1,NaN,NaN,NaN,2,-0.615249269935816,0,1,NaN,NaN,1,1,1,0,0,1,1,1,0,1,1,1,0,0,0,1,1,0,1,1,0.141666666666667,0.136111111111111,0.725,0.732142857142857,NaN,0.4,NaN,0.6,NaN,0.6,0.187239583333333,5,5
1042,104,1,2,132,1,1,1,387,387,3,1,1,NaN,NaN,NaN,2,-1.87316398493872,0,1,NaN,NaN,1,1,1,1,0,0,1,1,1,0,1,1,1,0,0,0,1,1,0,1,0.141666666666667,0.138888888888889,0.725,0.735714285714286,NaN,0.6,NaN,0.8,NaN,0.8,0.187239583333333,5,5
1042,104,1,2,133,0,1,0,592,NaN,4,1,0,0.141666666666667,NaN,1,1,NaN,0,0,0.141666666666667,NaN,1,1,1,1,1,0,0,1,1,1,1,1,1,1,0,0,0,1,1,0,0.141666666666667,0.141666666666667,0.75,0.739285714285714,NaN,0.8,NaN,1,NaN,0.8,0.164453125,5,5
1042,104,1,2,134,1,1,1,611,611,3,1,2,NaN,NaN,NaN,2,-0.272181620389568,0,1,NaN,NaN,0,1,1,1,1,1,0,0,1,1,1,1,1,1,1,0,0,0,1,1,0.141666666666667,0.295,0.75,0.742857142857143,NaN,1,NaN,0.8,NaN,0.8,0.164453125,5,5
1042,104,1,2,135,1,1,1,429,429,4,1,1,NaN,NaN,NaN,2,-1.57297979158576,0,1,NaN,NaN,1,0,1,1,1,1,1,0,0,1,1,1,1,1,1,1,0,0,0,1,0.141666666666667,0.448333333333333,0.75,0.746428571428571,NaN,1,NaN,0.8,NaN,0.8,0.164453125,5,5
1042,104,1,2,136,1,1,1,593,593,2,1,2,0.75,NaN,2,1,-0.400831988969411,0,1,NaN,0.75,1,1,0,1,1,1,1,1,0,0,1,1,1,1,1,1,1,0,0,0,0.908333333333333,0.601666666666667,0.75,0.75,NaN,1,NaN,0.8,NaN,0.8,0.164453125,5,5
1042,104,1,2,137,1,1,1,694,694,3,1,0,NaN,NaN,NaN,1,0.321039523617485,0,1,NaN,NaN,1,1,1,0,1,1,1,1,1,0,1,1,1,1,1,1,1,1,0,0,0.908333333333333,0.755,0.75,0.768333333333333,NaN,1,NaN,0.8,NaN,0.8,0.164453125,5,5
1042,104,1,2,138,1,1,1,649,649,2,1,0,0.908333333333333,NaN,1,1,-0.000586397832121906,0,1,0.908333333333333,NaN,1,1,1,1,0,1,1,1,1,1,1,1,1,1,1,1,1,1,1,0,0.908333333333333,0.908333333333333,0.75,0.786666666666667,NaN,1,NaN,0.8,NaN,0.8,0.536393229166667,5,5
1042,104,1,2,139,0,1,1,512,512,1,1,0,NaN,NaN,NaN,1,-0.979758647578704,0,0,NaN,NaN,1,1,1,1,1,0,1,1,1,1,1,1,1,1,1,1,1,1,1,1,0.908333333333333,0.890277777777778,0.841666666666667,0.805,NaN,1,NaN,1,595.2,1,0.536393229166667,5,5
1042,104,1,2,140,1,1,1,572,572,3,1,0,NaN,NaN,NaN,1,-0.550924085645894,0,1,NaN,NaN,0,1,1,1,1,1,0,1,1,1,1,1,1,1,1,1,1,1,1,1,0.908333333333333,0.872222222222222,0.841666666666667,0.823333333333333,NaN,1,NaN,0.8,575.4,1,0.536393229166667,5,5
1042,104,1,2,141,0,1,1,571,571,1,1,0,0.841666666666667,NaN,2,2,-0.558071328344775,0,0,NaN,0.841666666666667,1,0,1,1,1,1,1,0,1,1,1,1,1,1,1,1,1,1,1,1,0.8,0.854166666666667,0.841666666666667,0.841666666666667,NaN,1,NaN,0.8,604,1,0.536393229166667,5,5
1042,104,1,2,142,0,1,1,694,694,3,1,0,NaN,NaN,NaN,2,0.321039523617485,0,0,NaN,NaN,0,1,0,1,1,1,1,1,0,1,1,1,1,1,1,1,1,1,1,1,0.8,0.836111111111111,0.841666666666667,0.864285714285714,NaN,1,NaN,0.6,599.6,1,0.536393229166667,5,5
1042,104,1,2,143,1,1,1,449,449,4,1,2,NaN,NaN,NaN,1,-1.43003493760815,0,1,NaN,NaN,0,0,1,0,1,1,1,1,1,0,1,1,1,1,1,1,1,1,1,1,0.8,0.818055555555556,0.841666666666667,0.886904761904762,NaN,1,NaN,0.4,599.6,1,0.536393229166667,5,5
1042,104,1,2,144,1,1,1,605,605,2,1,0,0.8,NaN,1,1,-0.315065076582849,0,1,0.8,NaN,1,0,0,1,0,1,1,1,1,1,1,1,1,1,1,1,1,1,1,1,0.8,0.8,0.841666666666667,0.909523809523809,NaN,1,NaN,0.4,559.6,1,0.668196614583333,5,5
1042,104,1,3,145,0,1,1,549,549,1,1,2,NaN,NaN,NaN,2,-0.715310667720138,0,0,NaN,NaN,1,1,0,0,1,0,1,1,1,1,1,1,1,1,1,1,1,1,1,1,0.8,0.833333333333333,1,0.932142857142857,NaN,1,NaN,0.6,578.2,1,NaN,5,5
1042,104,1,3,146,0,1,1,444,444,2,1,1,NaN,NaN,NaN,1,-1.46577115110256,0,0,NaN,NaN,0,1,1,0,0,1,0,1,1,1,1,1,1,1,1,1,1,1,1,1,0.8,0.866666666666667,1,0.954761904761905,NaN,1,NaN,0.4,573.6,1,NaN,5,5
1042,104,1,3,147,0,1,1,568,568,1,1,1,NaN,NaN,NaN,1,-0.579513056441415,0,0,NaN,NaN,0,0,1,1,0,0,1,0,1,1,1,1,1,1,1,1,1,1,1,1,1,0.9,1,0.977380952380952,NaN,1,NaN,0.4,548.2,1,NaN,5,5
1042,104,1,3,148,1,1,1,628,628,3,1,0,1,NaN,2,1,-0.150678494508605,0,1,NaN,1,0,0,0,1,1,0,0,1,0,1,1,1,1,1,1,1,1,1,1,1,1,0.933333333333333,1,1,NaN,1,NaN,0.4,523,1,NaN,5,5
1042,104,1,3,149,1,1,1,611,611,2,1,1,NaN,NaN,NaN,1,-0.272181620389568,0,1,NaN,NaN,1,0,0,0,1,1,0,0,1,0,1,1,1,1,1,1,1,1,1,1,1,0.966666666666667,1,0.981944444444445,NaN,1,NaN,0.4,558.8,1,NaN,5,5
1042,104,1,3,150,1,1,1,529,529,3,1,1,1,NaN,1,1,-0.858255521697741,0,1,1,NaN,1,1,0,0,0,1,1,0,0,1,1,1,1,1,1,1,1,1,1,1,1,1,1,0.963888888888889,NaN,1,NaN,0.4,560,1,1,5,5
1042,104,1,3,151,0,1,0,596,NaN,2,1,0,NaN,NaN,NaN,2,NaN,0,0,NaN,NaN,1,1,1,0,0,0,1,1,0,0,1,1,1,1,1,1,1,1,1,1,1,0.960714285714286,0.891666666666667,0.945833333333333,NaN,1,NaN,0.6,NaN,1,1,5,5
1042,104,1,3,152,1,1,0,559,NaN,3,0,1,NaN,NaN,NaN,2,NaN,0,1,NaN,NaN,0,1,1,1,0,0,0,1,1,0,1,1,1,1,1,1,1,1,1,1,1,0.921428571428571,0.891666666666667,0.927777777777778,NaN,1,NaN,0.6,NaN,0.8,1,5,5
1042,104,1,3,153,0,1,1,552,552,2,1,2,NaN,NaN,NaN,1,-0.693868939623498,0,0,NaN,NaN,1,0,1,1,1,0,0,0,1,1,0,1,1,1,1,1,1,1,1,1,1,0.882142857142857,0.891666666666667,0.909722222222222,NaN,0.8,NaN,0.8,NaN,0.6,1,5,5
1042,104,1,3,154,0,1,0,886,NaN,3,1,0,0.891666666666667,NaN,2,2,NaN,0,0,NaN,0.891666666666667,0,1,0,1,1,1,0,0,0,1,1,0,1,1,1,1,1,1,1,1,0.725,0.842857142857143,0.891666666666667,0.891666666666667,NaN,0.8,NaN,0.6,NaN,0.6,1,5,5
1042,104,1,3,155,1,1,1,716,716,2,1,0,NaN,NaN,NaN,1,0.478278862992849,0,1,NaN,NaN,0,0,1,0,1,1,1,0,0,0,1,1,0,1,1,1,1,1,1,1,0.725,0.803571428571429,0.891666666666667,0.903571428571429,NaN,0.8,NaN,0.4,NaN,0.4,1,5,5
1042,104,1,3,156,1,1,1,473,473,4,1,1,NaN,NaN,NaN,2,-1.25850111283503,0,1,NaN,NaN,1,0,0,1,0,1,1,1,0,0,1,1,1,0,1,1,1,1,1,1,0.725,0.764285714285714,0.891666666666667,0.915476190476191,NaN,0.8,NaN,0.4,NaN,0.4,1,5,5
1042,104,1,3,157,1,1,0,675,NaN,3,0,0,0.725,NaN,1,1,NaN,0,1,0.725,NaN,1,1,0,0,1,0,1,1,1,0,1,1,1,1,0,1,1,1,1,1,0.725,0.725,0.891666666666667,0.927380952380952,NaN,0.8,NaN,0.6,NaN,0.6,0.8625,5,5
1042,104,1,3,158,1,1,1,464,464,4,1,1,NaN,NaN,NaN,1,-1.32282629712495,0,1,NaN,NaN,1,1,1,0,0,1,0,1,1,1,0,1,1,1,1,0,1,1,1,1,0.725,0.748958333333333,0.975,0.939285714285714,NaN,0.8,NaN,0.6,NaN,0.6,0.8625,5,5
1042,104,1,3,159,1,1,1,662,662,3,1,2,NaN,NaN,NaN,1,0.0923277572533202,0,1,NaN,NaN,1,1,1,1,0,0,1,0,1,1,1,0,1,1,1,1,0,1,1,1,0.725,0.772916666666667,0.975,0.951190476190476,NaN,0.8,NaN,0.8,NaN,0.6,0.8625,5,5
1042,104,1,3,160,1,1,1,446,446,4,1,1,NaN,NaN,NaN,2,-1.4514766657048,0,1,NaN,NaN,1,1,1,1,1,0,0,1,0,1,1,1,0,1,1,1,1,0,1,1,0.725,0.796875,0.975,0.963095238095238,NaN,0.8,NaN,1,NaN,0.8,0.8625,5,5
1042,104,1,3,161,0,1,1,528,528,2,1,1,0.975,NaN,2,1,-0.865402764396622,0,0,NaN,0.975,1,1,1,1,1,1,0,0,1,0,1,1,1,0,1,1,1,1,0,1,0.916666666666667,0.820833333333333,0.975,0.975,NaN,0.8,NaN,1,NaN,0.8,0.8625,5,5
1042,104,1,3,162,1,1,1,566,566,1,1,0,NaN,NaN,NaN,2,-0.593807541839175,0,1,NaN,NaN,0,1,1,1,1,1,1,0,0,1,1,1,1,1,0,1,1,1,1,0,0.916666666666667,0.844791666666667,0.975,0.972619047619048,NaN,0.8,NaN,0.8,NaN,0.8,0.8625,5,5
1042,104,1,3,163,1,1,1,605,605,3,1,1,NaN,NaN,NaN,2,-0.315065076582849,0,1,NaN,NaN,1,0,1,1,1,1,1,1,0,0,1,1,1,1,1,0,1,1,1,1,0.916666666666667,0.86875,0.975,0.970238095238095,NaN,1,NaN,0.8,533.2,1,0.8625,5,5
1042,104,1,3,164,1,1,1,553,553,2,1,1,NaN,NaN,NaN,1,-0.686721696924617,0,1,NaN,NaN,1,1,0,1,1,1,1,1,1,0,1,1,1,1,1,1,0,1,1,1,0.916666666666667,0.892708333333333,0.975,0.967857142857143,NaN,1,NaN,0.8,561.4,1,0.8625,5,5
